Time,header.seq,header.stamp.secs,header.stamp.nsecs,header.frame_id,orientation.x,orientation.y,orientation.z,orientation.w,orientation_covariance_0,orientation_covariance_1,orientation_covariance_2,orientation_covariance_3,orientation_covariance_4,orientation_covariance_5,orientation_covariance_6,orientation_covariance_7,orientation_covariance_8,angular_velocity.x,angular_velocity.y,angular_velocity.z,angular_velocity_covariance_0,angular_velocity_covariance_1,angular_velocity_covariance_2,angular_velocity_covariance_3,angular_velocity_covariance_4,angular_velocity_covariance_5,angular_velocity_covariance_6,angular_velocity_covariance_7,angular_velocity_covariance_8,linear_acceleration.x,linear_acceleration.y,linear_acceleration.z,linear_acceleration_covariance_0,linear_acceleration_covariance_1,linear_acceleration_covariance_2,linear_acceleration_covariance_3,linear_acceleration_covariance_4,linear_acceleration_covariance_5,linear_acceleration_covariance_6,linear_acceleration_covariance_7,linear_acceleration_covariance_8
1719006630.042171,37794,1719006630,36607360,base_link,0.017014226043231717,-0.016382870862349918,-0.8934352378346326,-0.44857082638305257,1.0,0.0,0.0,0.0,1.0,0.0,0.0,0.0,1.0,4.061299841850996e-05,0.000254034501267597,-0.00040201770025305455,1.2184696791468346e-07,0.0,0.0,0.0,1.2184696791468346e-07,0.0,0.0,0.0,1.2184696791468346e-07,-0.4414551556110382,0.14026996493339658,9.798468589782715,8.999999999999999e-08,0.0,0.0,0.0,8.999999999999999e-08,0.0,0.0,0.0,8.999999999999999e-08
1719006630.049946,37795,1719006630,41607360,base_link,0.01701546787295813,-0.016382785436779523,-0.8934348795864202,-0.44857126892496185,1.0,0.0,0.0,0.0,1.0,0.0,0.0,0.0,1.0,-0.0002819535438902676,0.00028021744219586253,-8.982478175312285e-05,1.2184696791468346e-07,0.0,0.0,0.0,1.2184696791468346e-07,0.0,0.0,0.0,1.2184696791468346e-07,-0.4378489851951599,0.14240820705890775,9.778671264648438,8.999999999999999e-08,0.0,0.0,0.0,8.999999999999999e-08,0.0,0.0,0.0,8.999999999999999e-08
1719006630.0520551,37796,1719006630,46607360,base_link,0.01701516782361668,-0.016379458222971002,-0.8934343316773895,-0.4485724911835687,1.0,0.0,0.0,0.0,1.0,0.0,0.0,0.0,1.0,-0.0005767294205725193,-0.00020025642879772934,-0.00024799053790047765,1.2184696791468346e-07,0.0,0.0,0.0,1.2184696791468346e-07,0.0,0.0,0.0,1.2184696791468346e-07,-0.4333024322986603,0.1337771713733685,9.794205665588379,8.999999999999999e-08,0.0,0.0,0.0,8.999999999999999e-08,0.0,0.0,0.0,8.999999999999999e-08
1719006630.0590394,37797,1719006630,51606848,base_link,0.017014188526774277,-0.01638091430603718,-0.8934347952927232,-0.44857177468714393,1.0,0.0,0.0,0.0,1.0,0.0,0.0,0.0,1.0,1.6119854990392923e-05,-6.032385863363742e-05,6.925623165443541e-05,1.2184696791468346e-07,0.0,0.0,0.0,1.2184696791468346e-07,0.0,0.0,0.0,1.2184696791468346e-07,-0.440443217754364,0.13084782660007596,9.806743621826172,8.999999999999999e-08,0.0,0.0,0.0,8.999999999999999e-08,0.0,0.0,0.0,8.999999999999999e-08
1719006630.0639658,37798,1719006630,56606848,base_link,0.017014799964770424,-0.016381432930416738,-0.8934345845584806,-0.4485719011276895,1.0,0.0,0.0,0.0,1.0,0.0,0.0,0.0,1.0,-6.483239121735096e-05,-8.35429673315957e-05,0.00012628949480131269,1.2184696791468346e-07,0.0,0.0,0.0,1.2184696791468346e-07,0.0,0.0,0.0,1.2184696791468346e-07,-0.4427596628665924,0.13650298118591428,9.788680076599121,8.999999999999999e-08,0.0,0.0,0.0,8.999999999999999e-08,0.0,0.0,0.0,8.999999999999999e-08
1719006630.0686383,37799,1719006630,61606848,base_link,0.017013368309589584,-0.016380607095024213,-0.8934347952927232,-0.4485716060997499,1.0,0.0,0.0,0.0,1.0,0.0,0.0,0.0,1.0,0.00013672694331035018,-0.00022794962569605556,0.00019184342818334701,1.2184696791468346e-07,0.0,0.0,0.0,1.2184696791468346e-07,0.0,0.0,0.0,1.2184696791468346e-07,-0.44407856464385986,0.13957345485687375,9.798973083496094,8.999999999999999e-08,0.0,0.0,0.0,8.999999999999999e-08,0.0,0.0,0.0,8.999999999999999e-08
1719006630.0732157,37800,1719006630,66606848,base_link,0.017011101969824395,-0.016382175377610938,-0.8934357014499661,-0.4485701098866278,1.0,0.0,0.0,0.0,1.0,0.0,0.0,0.0,1.0,0.0004818192101083696,-0.0004838962340727448,0.00034762534778565174,1.2184696791468346e-07,0.0,0.0,0.0,1.2184696791468346e-07,0.0,0.0,0.0,1.2184696791468346e-07,-0.44746893644332886,0.1346667706966412,9.790121078491211,8.999999999999999e-08,0.0,0.0,0.0,8.999999999999999e-08,0.0,0.0,0.0,8.999999999999999e-08
1719006630.079228,37801,1719006630,71606848,base_link,0.01700931527683569,-0.016383024303220275,-0.8934353432017539,-0.4485705524285372,1.0,0.0,0.0,0.0,1.0,0.0,0.0,0.0,1.0,0.00010710925562307239,-0.0005628882790915668,0.00025107985129579907,1.2184696791468346e-07,0.0,0.0,0.0,1.2184696791468346e-07,0.0,0.0,0.0,1.2184696791468346e-07,-0.44360652565956116,0.13129301369190335,9.78592586517334,8.999999999999999e-08,0.0,0.0,0.0,8.999999999999999e-08,0.0,0.0,0.0,8.999999999999999e-08
1719006630.0896573,37802,1719006630,81606848,base_link,0.017007163976564234,-0.016380995162955055,-0.8934357225233904,-0.44857000451950657,1.0,0.0,0.0,0.0,1.0,0.0,0.0,0.0,1.0,-5.4191506933420897e-05,-0.000630602880846709,9.986886288970717e-05,1.2184696791468346e-07,0.0,0.0,0.0,1.2184696791468346e-07,0.0,0.0,0.0,1.2184696791468346e-07,-0.4507300555706024,0.14663001894950986,9.799939155578613,8.999999999999999e-08,0.0,0.0,0.0,8.999999999999999e-08,0.0,0.0,0.0,8.999999999999999e-08
1719006630.0911653,37803,1719006630,86606848,base_link,0.01700747448029975,-0.01638037119203374,-0.8934355328625722,-0.44857036276771894,1.0,0.0,0.0,0.0,1.0,0.0,0.0,0.0,1.0,-3.2194191589951515e-05,-0.0002134199457941577,-0.00015186544624157247,1.2184696791468346e-07,0.0,0.0,0.0,1.2184696791468346e-07,0.0,0.0,0.0,1.2184696791468346e-07,-0.4367865324020386,0.14501677453518033,9.794095993041992,8.999999999999999e-08,0.0,0.0,0.0,8.999999999999999e-08,0.0,0.0,0.0,8.999999999999999e-08
1719006630.0982835,37804,1719006630,91606848,base_link,0.01700689792458301,-0.01638040247289787,-0.8934360175513301,-0.4485693723167789,1.0,0.0,0.0,0.0,1.0,0.0,0.0,0.0,1.0,-5.09058590978384e-05,-0.0002580292639322579,3.354350337758664e-05,1.2184696791468346e-07,0.0,0.0,0.0,1.2184696791468346e-07,0.0,0.0,0.0,1.2184696791468346e-07,-0.4447139799594879,0.13623024523258329,9.792597770690918,8.999999999999999e-08,0.0,0.0,0.0,8.999999999999999e-08,0.0,0.0,0.0,8.999999999999999e-08
1719006630.1031115,37805,1719006630,96606848,base_link,0.017004684124321847,-0.016379739750748162,-0.8934361861387241,-0.44856920372938486,1.0,0.0,0.0,0.0,1.0,0.0,0.0,0.0,1.0,-8.87364149093628e-06,-0.0004364711930975318,0.00016936857718974357,1.2184696791468346e-07,0.0,0.0,0.0,1.2184696791468346e-07,0.0,0.0,0.0,1.2184696791468346e-07,-0.4415091872215271,0.1414460241794598,9.78130054473877,8.999999999999999e-08,0.0,0.0,0.0,8.999999999999999e-08,0.0,0.0,0.0,8.999999999999999e-08
1719006630.10942,37806,1719006630,101606848,base_link,0.01700441395643745,-0.01638079226950805,-0.8934364811666636,-0.44856865582035416,1.0,0.0,0.0,0.0,1.0,0.0,0.0,0.0,1.0,0.00020972179481759667,-0.00025150494184345,0.0002800943329930306,1.2184696791468346e-07,0.0,0.0,0.0,1.2184696791468346e-07,0.0,0.0,0.0,1.2184696791468346e-07,-0.4408741593360901,0.14109852910041928,9.782572746276855,8.999999999999999e-08,0.0,0.0,0.0,8.999999999999999e-08,0.0,0.0,0.0,8.999999999999999e-08
1719006630.1151776,37807,1719006630,111606848,base_link,0.01700231414611471,-0.01637908569257464,-0.8934362915058452,-0.4485691826559606,1.0,0.0,0.0,0.0,1.0,0.0,0.0,0.0,1.0,6.233924068510532e-06,-0.00040848657954484224,-4.638970131054516e-05,1.2184696791468346e-07,0.0,0.0,0.0,1.2184696791468346e-07,0.0,0.0,0.0,1.2184696791468346e-07,-0.4468574523925781,0.14030635356903196,9.794963836669922,8.999999999999999e-08,0.0,0.0,0.0,8.999999999999999e-08,0.0,0.0,0.0,8.999999999999999e-08
1719006630.1214333,37808,1719006630,116606848,base_link,0.017000361602807577,-0.01637861215791437,-0.8934355539359964,-0.4485707631627797,1.0,0.0,0.0,0.0,1.0,0.0,0.0,0.0,1.0,3.240746445953846e-05,-0.000678067619446665,-0.00042956741526722897,1.2184696791468346e-07,0.0,0.0,0.0,1.2184696791468346e-07,0.0,0.0,0.0,1.2184696791468346e-07,-0.43549495935440063,0.136662080883981,9.795960426330566,8.999999999999999e-08,0.0,0.0,0.0,8.999999999999999e-08,0.0,0.0,0.0,8.999999999999999e-08
1719006630.1286204,37809,1719006630,121606848,base_link,0.016999967628555674,-0.016379106230931487,-0.893435532862572,-0.448570784236204,1.0,0.0,0.0,0.0,1.0,0.0,0.0,0.0,1.0,5.960662383586168e-05,-0.00023939074890222403,-0.00031110944109968836,1.2184696791468346e-07,0.0,0.0,0.0,1.2184696791468346e-07,0.0,0.0,0.0,1.2184696791468346e-07,-0.4508863389492035,0.13172575831413388,9.79847240447998,8.999999999999999e-08,0.0,0.0,0.0,8.999999999999999e-08,0.0,0.0,0.0,8.999999999999999e-08
1719006630.129756,37810,1719006630,126606848,base_link,0.01699979875304841,-0.016379314619109228,-0.8934353010549053,-0.44857118463126483,1.0,0.0,0.0,0.0,1.0,0.0,0.0,0.0,1.0,8.787569822743535e-05,-0.0001375008869217709,-0.0002835531486198306,1.2184696791468346e-07,0.0,0.0,0.0,1.2184696791468346e-07,0.0,0.0,0.0,1.2184696791468346e-07,-0.45386284589767456,0.1335863471031201,9.786022186279297,8.999999999999999e-08,0.0,0.0,0.0,8.999999999999999e-08,0.0,0.0,0.0,8.999999999999999e-08
1719006630.1372616,37811,1719006630,131606848,base_link,0.016998128437221975,-0.016379717895302303,-0.8934358911107845,-0.44857008881320354,1.0,0.0,0.0,0.0,1.0,0.0,0.0,0.0,1.0,0.00017999735428020358,-0.0002810453297570348,0.00013074243906885388,1.2184696791468346e-07,0.0,0.0,0.0,1.2184696791468346e-07,0.0,0.0,0.0,1.2184696791468346e-07,-0.42596784234046936,0.1410100609064114,9.7922945022583,8.999999999999999e-08,0.0,0.0,0.0,8.999999999999999e-08,0.0,0.0,0.0,8.999999999999999e-08
1719006630.1419945,37812,1719006630,136606848,base_link,0.016998067172003216,-0.016380385021468408,-0.8934366076072092,-0.4485686136735057,1.0,0.0,0.0,0.0,1.0,0.0,0.0,0.0,1.0,0.0001068754936568439,-2.6571811758913056e-05,0.00035442266380414367,1.2184696791468346e-07,0.0,0.0,0.0,1.2184696791468346e-07,0.0,0.0,0.0,1.2184696791468346e-07,-0.43051472306251526,0.13337206840515256,9.791902542114258,8.999999999999999e-08,0.0,0.0,0.0,8.999999999999999e-08,0.0,0.0,0.0,8.999999999999999e-08
1719006630.1498249,37813,1719006630,141606848,base_link,0.016998397699607676,-0.01637980951530698,-0.893436186138724,-0.44856945661047587,1.0,0.0,0.0,0.0,1.0,0.0,0.0,0.0,1.0,-7.177010411396623e-05,2.9934395570307977e-05,4.397856537252664e-05,1.2184696791468346e-07,0.0,0.0,0.0,1.2184696791468346e-07,0.0,0.0,0.0,1.2184696791468346e-07,-0.4508773982524872,0.1462046205997479,9.805603981018066,8.999999999999999e-08,0.0,0.0,0.0,8.999999999999999e-08,0.0,0.0,0.0,8.999999999999999e-08
1719006630.155305,37814,1719006630,151606848,base_link,0.01699430675938554,-0.016377322912983383,-0.8934369869288458,-0.448568150058172,1.0,0.0,0.0,0.0,1.0,0.0,0.0,0.0,1.0,-6.796582601964474e-05,-0.0006484928308054805,0.00019455421715974816,1.2184696791468346e-07,0.0,0.0,0.0,1.2184696791468346e-07,0.0,0.0,0.0,1.2184696791468346e-07,-0.445514053106308,0.12984219193458676,9.788325309753418,8.999999999999999e-08,0.0,0.0,0.0,8.999999999999999e-08,0.0,0.0,0.0,8.999999999999999e-08
1719006630.1629996,37815,1719006630,156607872,base_link,0.016994942789903156,-0.016377034593965983,-0.8934362072121483,-0.44856968841814276,1.0,0.0,0.0,0.0,1.0,0.0,0.0,0.0,1.0,-0.00029807211831212044,-0.0007232952630147338,-0.00011348369298502793,1.2184696791468346e-07,0.0,0.0,0.0,1.2184696791468346e-07,0.0,0.0,0.0,1.2184696791468346e-07,-0.4316600263118744,0.15453003346920133,9.785619735717773,8.999999999999999e-08,0.0,0.0,0.0,8.999999999999999e-08,0.0,0.0,0.0,8.999999999999999e-08
1719006630.1675668,37816,1719006630,161607872,base_link,0.016993849503122327,-0.016375541117919456,-0.8934361650652998,-0.4485698991523853,1.0,0.0,0.0,0.0,1.0,0.0,0.0,0.0,1.0,-0.0002967087784782052,-0.0004672998329624534,-0.000291886186460033,1.2184696791468346e-07,0.0,0.0,0.0,1.2184696791468346e-07,0.0,0.0,0.0,1.2184696791468346e-07,-0.4530033469200134,0.15057231485843778,9.80089282989502,8.999999999999999e-08,0.0,0.0,0.0,8.999999999999999e-08,0.0,0.0,0.0,8.999999999999999e-08
1719006630.1719978,37817,1719006630,166607872,base_link,0.01699526407730499,-0.016374297765308868,-0.8934357225233904,-0.4485708474564767,1.0,0.0,0.0,0.0,1.0,0.0,0.0,0.0,1.0,-0.0005211229436099529,-0.00015203109069261703,-0.0003034842084161937,1.2184696791468346e-07,0.0,0.0,0.0,1.2184696791468346e-07,0.0,0.0,0.0,1.2184696791468346e-07,-0.45898881554603577,0.14383302628994107,9.772465705871582,8.999999999999999e-08,0.0,0.0,0.0,8.999999999999999e-08,0.0,0.0,0.0,8.999999999999999e-08
1719006630.1781757,37818,1719006630,171607872,base_link,0.016994242180864726,-0.01637391564485811,-0.8934366076072092,-0.44856911943568784,1.0,0.0,0.0,0.0,1.0,0.0,0.0,0.0,1.0,-0.0003723418922163546,5.258645251160492e-05,0.0004128291620872915,1.2184696791468346e-07,0.0,0.0,0.0,1.2184696791468346e-07,0.0,0.0,0.0,1.2184696791468346e-07,-0.4523527920246124,0.1321554183959973,9.780986785888672,8.999999999999999e-08,0.0,0.0,0.0,8.999999999999999e-08,0.0,0.0,0.0,8.999999999999999e-08
1719006630.1838844,37819,1719006630,176607872,base_link,0.016997192110408718,-0.016375227815369785,-0.8934371133693914,-0.4485679393239295,1.0,0.0,0.0,0.0,1.0,0.0,0.0,0.0,1.0,7.425382500514388e-05,0.00041204132139682775,0.00023368705296888942,1.2184696791468346e-07,0.0,0.0,0.0,1.2184696791468346e-07,0.0,0.0,0.0,1.2184696791468346e-07,-0.4497562348842621,0.11937785148620725,9.79507064819336,8.999999999999999e-08,0.0,0.0,0.0,8.999999999999999e-08,0.0,0.0,0.0,8.999999999999999e-08
1719006630.188047,37820,1719006630,181607872,base_link,0.016995536097345817,-0.016374660582173736,-0.893436839414876,-0.4485683818658389,1.0,0.0,0.0,0.0,1.0,0.0,0.0,0.0,1.0,-4.65711927972734e-05,0.00013057452451903376,0.00016482535284012553,1.2184696791468346e-07,0.0,0.0,0.0,1.2184696791468346e-07,0.0,0.0,0.0,1.2184696791468346e-07,-0.4388018846511841,0.14972928166389585,9.79177188873291,8.999999999999999e-08,0.0,0.0,0.0,8.999999999999999e-08,0.0,0.0,0.0,8.999999999999999e-08
1719006630.1931064,37821,1719006630,186607872,base_link,0.016998164451374757,-0.016372029593966768,-0.8934372398099368,-0.44856789717708095,1.0,0.0,0.0,0.0,1.0,0.0,0.0,0.0,1.0,-0.0008102970896288753,0.000141595141030848,-0.00016262399731203916,1.2184696791468346e-07,0.0,0.0,0.0,1.2184696791468346e-07,0.0,0.0,0.0,1.2184696791468346e-07,-0.437401682138443,0.12185118347406507,9.783946990966797,8.999999999999999e-08,0.0,0.0,0.0,8.999999999999999e-08,0.0,0.0,0.0,8.999999999999999e-08
1719006630.2021363,37822,1719006630,196607872,base_link,0.016997136957306175,-0.01636730404321361,-0.893434858512996,-0.44857263869753844,1.0,0.0,0.0,0.0,1.0,0.0,0.0,0.0,1.0,-0.0010296370601281524,-0.0002573192468844355,-0.000884416454937309,1.2184696791468346e-07,0.0,0.0,0.0,1.2184696791468346e-07,0.0,0.0,0.0,1.2184696791468346e-07,-0.4380420744419098,0.128671318292619,9.798620223999023,8.999999999999999e-08,0.0,0.0,0.0,8.999999999999999e-08,0.0,0.0,0.0,8.999999999999999e-08
1719006630.2050023,37823,1719006630,201607872,base_link,0.016993839378000516,-0.016367630269699254,-0.8934359754044815,-0.44857051028168865,1.0,0.0,0.0,0.0,1.0,0.0,0.0,0.0,1.0,-0.000332383846398443,-0.0008164391620084643,-0.00033916198299266387,1.2184696791468346e-07,0.0,0.0,0.0,1.2184696791468346e-07,0.0,0.0,0.0,1.2184696791468346e-07,-0.4412270784378052,0.14257219433784604,9.805254936218262,8.999999999999999e-08,0.0,0.0,0.0,8.999999999999999e-08,0.0,0.0,0.0,8.999999999999999e-08
1719006630.2110984,37824,1719006630,206607872,base_link,0.016994791057132613,-0.016369547210443928,-0.8934360386247543,-0.4485701941803249,1.0,0.0,0.0,0.0,1.0,0.0,0.0,0.0,1.0,0.0003312291228212416,-0.0003031270462088287,0.00019520067144185307,1.2184696791468346e-07,0.0,0.0,0.0,1.2184696791468346e-07,0.0,0.0,0.0,1.2184696791468346e-07,-0.45186349749565125,0.1472713053226483,9.801023483276367,8.999999999999999e-08,0.0,0.0,0.0,8.999999999999999e-08,0.0,0.0,0.0,8.999999999999999e-08
1719006630.2180786,37825,1719006630,211607872,base_link,0.016996179495330117,-0.016369813036050476,-0.8934353010549053,-0.44857177468714393,1.0,0.0,0.0,0.0,1.0,0.0,0.0,0.0,1.0,0.00019655941287055612,9.727276483317834e-05,-0.00021639798069372773,1.2184696791468346e-07,0.0,0.0,0.0,1.2184696791468346e-07,0.0,0.0,0.0,1.2184696791468346e-07,-0.42846593260765076,0.14917817711830259,9.799574851989746,8.999999999999999e-08,0.0,0.0,0.0,8.999999999999999e-08,0.0,0.0,0.0,8.999999999999999e-08
1719006630.2229025,37826,1719006630,216607872,base_link,0.016994637410467094,-0.01636841274405183,-0.8934352167612083,-0.4485721118619321,1.0,0.0,0.0,0.0,1.0,0.0,0.0,0.0,1.0,-0.00016230467008426785,-0.00023093704658094796,-0.00029296296997927124,1.2184696791468346e-07,0.0,0.0,0.0,1.2184696791468346e-07,0.0,0.0,0.0,1.2184696791468346e-07,-0.45655587315559387,0.1367582082748425,9.79973030090332,8.999999999999999e-08,0.0,0.0,0.0,8.999999999999999e-08,0.0,0.0,0.0,8.999999999999999e-08
1719006630.2293804,37827,1719006630,221607872,base_link,0.01699452669267169,-0.016367564621043613,-0.8934352167612083,-0.4485721118619321,1.0,0.0,0.0,0.0,1.0,0.0,0.0,0.0,1.0,-0.00033678964246064425,-0.0002282012574141845,-5.579966818913815e-05,1.2184696791468346e-07,0.0,0.0,0.0,1.2184696791468346e-07,0.0,0.0,0.0,1.2184696791468346e-07,-0.44950565695762634,0.14458036422729612,9.802156448364258,8.999999999999999e-08,0.0,0.0,0.0,8.999999999999999e-08,0.0,0.0,0.0,8.999999999999999e-08
1719006630.235635,37828,1719006630,231607872,base_link,0.016995487467949804,-0.01636858474764551,-0.8934347320724505,-0.44857284943178094,1.0,0.0,0.0,0.0,1.0,0.0,0.0,0.0,1.0,-2.3932894691824913e-05,0.00011191920930286868,-0.00012948576477356258,1.2184696791468346e-07,0.0,0.0,0.0,1.2184696791468346e-07,0.0,0.0,0.0,1.2184696791468346e-07,-0.4476177990436554,0.14623668789863706,9.787888526916504,8.999999999999999e-08,0.0,0.0,0.0,8.999999999999999e-08,0.0,0.0,0.0,8.999999999999999e-08
1719006630.24214,37829,1719006630,236607872,base_link,0.016994573367013693,-0.016369980903161465,-0.8934347109990262,-0.4485728705052052,1.0,0.0,0.0,0.0,1.0,0.0,0.0,0.0,1.0,0.00022911472478881478,9.28211084101349e-05,-0.0001015739399008453,1.2184696791468346e-07,0.0,0.0,0.0,1.2184696791468346e-07,0.0,0.0,0.0,1.2184696791468346e-07,-0.4369570016860962,0.15683569014072538,9.795758247375488,8.999999999999999e-08,0.0,0.0,0.0,8.999999999999999e-08,0.0,0.0,0.0,8.999999999999999e-08
1719006630.2492905,37830,1719006630,241607872,base_link,0.01699370412942219,-0.01636920377948301,-0.8934351324675113,-0.44857228044932607,1.0,0.0,0.0,0.0,1.0,0.0,0.0,0.0,1.0,0.00020732433767989278,5.183137545827768e-06,-7.046532118692994e-05,1.2184696791468346e-07,0.0,0.0,0.0,1.2184696791468346e-07,0.0,0.0,0.0,1.2184696791468346e-07,-0.44885098934173584,0.15047106146812558,9.792560577392578,8.999999999999999e-08,0.0,0.0,0.0,8.999999999999999e-08,0.0,0.0,0.0,8.999999999999999e-08
1719006630.2502062,37831,1719006630,246607872,base_link,0.016993211908561505,-0.016370691719639768,-0.8934344791913594,-0.44857327090026605,1.0,0.0,0.0,0.0,1.0,0.0,0.0,0.0,1.0,0.00026808265829458833,-1.8205755623057686e-06,-0.00016424735076725483,1.2184696791468346e-07,0.0,0.0,0.0,1.2184696791468346e-07,0.0,0.0,0.0,1.2184696791468346e-07,-0.4540625810623169,0.1407344788312924,9.798369407653809,8.999999999999999e-08,0.0,0.0,0.0,8.999999999999999e-08,0.0,0.0,0.0,8.999999999999999e-08
1719006630.2572305,37832,1719006630,251607872,base_link,0.016994358763822156,-0.0163719525031003,-0.8934344370445109,-0.4485735659282057,1.0,0.0,0.0,0.0,1.0,0.0,0.0,0.0,1.0,0.00026345899095758796,0.00018786580767482516,-0.00017661380115896466,1.2184696791468346e-07,0.0,0.0,0.0,1.2184696791468346e-07,0.0,0.0,0.0,1.2184696791468346e-07,-0.4447871744632721,0.13796818256378293,9.80315113067627,8.999999999999999e-08,0.0,0.0,0.0,8.999999999999999e-08,0.0,0.0,0.0,8.999999999999999e-08
1719006630.2624202,37833,1719006630,256607104,base_link,0.016995402680344402,-0.016372278359154654,-0.8934346056319049,-0.4485728915786295,1.0,0.0,0.0,0.0,1.0,0.0,0.0,0.0,1.0,6.304273847490549e-05,0.00040290720062330365,-8.88360664248467e-05,1.2184696791468346e-07,0.0,0.0,0.0,1.2184696791468346e-07,0.0,0.0,0.0,1.2184696791468346e-07,-0.45327457785606384,0.14356496930122495,9.786222457885742,8.999999999999999e-08,0.0,0.0,0.0,8.999999999999999e-08,0.0,0.0,0.0,8.999999999999999e-08
1719006630.2691107,37834,1719006630,261607104,base_link,0.01699551288365191,-0.016371902103865923,-0.893433383373298,-0.4485753782426916,1.0,0.0,0.0,0.0,1.0,0.0,0.0,0.0,1.0,3.2068637665361166e-05,0.00012233885354362425,-0.0003279048250988126,1.2184696791468346e-07,0.0,0.0,0.0,1.2184696791468346e-07,0.0,0.0,0.0,1.2184696791468346e-07,-0.4306543469429016,0.14369559288025022,9.788835525512695,8.999999999999999e-08,0.0,0.0,0.0,8.999999999999999e-08,0.0,0.0,0.0,8.999999999999999e-08
1719006630.27712,37835,1719006630,271607104,base_link,0.016997634508261472,-0.01637223553318212,-0.8934342263102683,-0.4485738609561452,1.0,0.0,0.0,0.0,1.0,0.0,0.0,0.0,1.0,-0.0002647839137353003,0.0003533892158884555,-1.926766708493237e-05,1.2184696791468346e-07,0.0,0.0,0.0,1.2184696791468346e-07,0.0,0.0,0.0,1.2184696791468346e-07,-0.4386030435562134,0.13763578236103177,9.803466796875,8.999999999999999e-08,0.0,0.0,0.0,8.999999999999999e-08,0.0,0.0,0.0,8.999999999999999e-08
1719006630.2820396,37836,1719006630,276607104,base_link,0.01699911779744764,-0.016373396958740013,-0.8934343948976624,-0.4485733551939631,1.0,0.0,0.0,0.0,1.0,0.0,0.0,0.0,1.0,-0.00016016780864447355,0.0005270754336379468,0.00013886095257475967,1.2184696791468346e-07,0.0,0.0,0.0,1.2184696791468346e-07,0.0,0.0,0.0,1.2184696791468346e-07,-0.4501346945762634,0.15063367784023404,9.8054838180542,8.999999999999999e-08,0.0,0.0,0.0,8.999999999999999e-08,0.0,0.0,0.0,8.999999999999999e-08
1719006630.2903166,37837,1719006630,281607104,base_link,0.016999184495658588,-0.016372987817384912,-0.8934338680620558,-0.4485743877917516,1.0,0.0,0.0,0.0,1.0,0.0,0.0,0.0,1.0,-0.00014101085253059864,0.0003542708873283118,1.9853527192026333e-05,1.2184696791468346e-07,0.0,0.0,0.0,1.2184696791468346e-07,0.0,0.0,0.0,1.2184696791468346e-07,-0.4403209984302521,0.14019158482551694,9.80340576171875,8.999999999999999e-08,0.0,0.0,0.0,8.999999999999999e-08,0.0,0.0,0.0,8.999999999999999e-08
1719006630.2903812,37838,1719006630,286607104,base_link,0.017000125020693084,-0.016371486212429617,-0.8934346899256019,-0.4485728072849325,1.0,0.0,0.0,0.0,1.0,0.0,0.0,0.0,1.0,-0.0003325214493088424,0.00026886718114838004,9.51946713030338e-05,1.2184696791468346e-07,0.0,0.0,0.0,1.2184696791468346e-07,0.0,0.0,0.0,1.2184696791468346e-07,-0.45318174362182617,0.14954358339309812,9.802447319030762,8.999999999999999e-08,0.0,0.0,0.0,8.999999999999999e-08,0.0,0.0,0.0,8.999999999999999e-08
1719006630.2977157,37839,1719006630,291607104,base_link,0.01700026380894814,-0.01637344686406601,-0.8934345424116321,-0.4485728705052052,1.0,0.0,0.0,0.0,1.0,0.0,0.0,0.0,1.0,-5.5912300013005733e-05,0.00028527906397357583,9.956792928278442e-05,1.2184696791468346e-07,0.0,0.0,0.0,1.2184696791468346e-07,0.0,0.0,0.0,1.2184696791468346e-07,-0.44837212562561035,0.15366797149181485,9.798742294311523,8.999999999999999e-08,0.0,0.0,0.0,8.999999999999999e-08,0.0,0.0,0.0,8.999999999999999e-08
1719006630.3020887,37840,1719006630,296607104,base_link,0.01699897791847824,-0.01637315488189478,-0.8934350481738143,-0.44857194327453803,1.0,0.0,0.0,0.0,1.0,0.0,0.0,0.0,1.0,0.0002818095381371677,-0.00011093475040979681,0.00018660310888662937,1.2184696791468346e-07,0.0,0.0,0.0,1.2184696791468346e-07,0.0,0.0,0.0,1.2184696791468346e-07,-0.4516526162624359,0.13222265243530393,9.791315078735352,8.999999999999999e-08,0.0,0.0,0.0,8.999999999999999e-08,0.0,0.0,0.0,8.999999999999999e-08
1719006630.3088813,37841,1719006630,301607104,base_link,0.016998391525752915,-0.016374884507885965,-0.8934339945026014,-0.4485740084701151,1.0,0.0,0.0,0.0,1.0,0.0,0.0,0.0,1.0,0.00020593433873727918,7.925150566734368e-05,-0.00047419595648534596,1.2184696791468346e-07,0.0,0.0,0.0,1.2184696791468346e-07,0.0,0.0,0.0,1.2184696791468346e-07,-0.4539810121059418,0.1294734776020062,9.796600341796875,8.999999999999999e-08,0.0,0.0,0.0,8.999999999999999e-08,0.0,0.0,0.0,8.999999999999999e-08
1719006630.3174613,37842,1719006630,311607104,base_link,0.017000750308703412,-0.01637588430192618,-0.8934322454083882,-0.44857735914457164,1.0,0.0,0.0,0.0,1.0,0.0,0.0,0.0,1.0,0.00016534823225811124,0.00039559038123115886,-0.0007409811951220036,1.2184696791468346e-07,0.0,0.0,0.0,1.2184696791468346e-07,0.0,0.0,0.0,1.2184696791468346e-07,-0.4340570867061615,0.13960839807987332,9.79495620727539,8.999999999999999e-08,0.0,0.0,0.0,8.999999999999999e-08,0.0,0.0,0.0,8.999999999999999e-08
1719006630.322057,37843,1719006630,316607104,base_link,0.016999538874921945,-0.016376916611601476,-0.893431571058812,-0.448578707843724,1.0,0.0,0.0,0.0,1.0,0.0,0.0,0.0,1.0,0.0002881570835597813,4.7956120397429825e-05,-0.0007297539268620312,1.2184696791468346e-07,0.0,0.0,0.0,1.2184696791468346e-07,0.0,0.0,0.0,1.2184696791468346e-07,-0.44373467564582825,0.145684137940408,9.806426048278809,8.999999999999999e-08,0.0,0.0,0.0,8.999999999999999e-08,0.0,0.0,0.0,8.999999999999999e-08
1719006630.3290071,37844,1719006630,321607104,base_link,0.016998593863552992,-0.01637626531108308,-0.8934298430380232,-0.44858220603215043,1.0,0.0,0.0,0.0,1.0,0.0,0.0,0.0,1.0,-9.222206426784396e-05,-0.00027204729849472653,-0.0010628008749336004,1.2184696791468346e-07,0.0,0.0,0.0,1.2184696791468346e-07,0.0,0.0,0.0,1.2184696791468346e-07,-0.4253414571285248,0.14332333207130551,9.807640075683594,8.999999999999999e-08,0.0,0.0,0.0,8.999999999999999e-08,0.0,0.0,0.0,8.999999999999999e-08
1719006630.3302321,37845,1719006630,326607104,base_link,0.016998439002696035,-0.016374020435752947,-0.893429252982144,-0.44858347043760577,1.0,0.0,0.0,0.0,1.0,0.0,0.0,0.0,1.0,-0.0003000696888193488,-0.00039351213490590464,-0.001043381984345615,1.2184696791468346e-07,0.0,0.0,0.0,1.2184696791468346e-07,0.0,0.0,0.0,1.2184696791468346e-07,-0.4449462890625,0.12452734261751294,9.78498649597168,8.999999999999999e-08,0.0,0.0,0.0,8.999999999999999e-08,0.0,0.0,0.0,8.999999999999999e-08
1719006630.3372712,37846,1719006630,331607104,base_link,0.01699999814797772,-0.0163748979051508,-0.8934300326988415,-0.44858201637133216,1.0,0.0,0.0,0.0,1.0,0.0,0.0,0.0,1.0,-0.0003367406316101551,6.272490281844509e-05,-0.0002716730232350528,1.2184696791468346e-07,0.0,0.0,0.0,1.2184696791468346e-07,0.0,0.0,0.0,1.2184696791468346e-07,-0.44148048758506775,0.12639236450195432,9.807083129882812,8.999999999999999e-08,0.0,0.0,0.0,8.999999999999999e-08,0.0,0.0,0.0,8.999999999999999e-08
1719006630.3433366,37847,1719006630,336607104,base_link,0.01700096616724542,-0.016377407000885247,-0.8934310442232057,-0.4485798247352096,1.0,0.0,0.0,0.0,1.0,0.0,0.0,0.0,1.0,0.0002881946857087314,0.00043612549779936677,0.0004309806390665471,1.2184696791468346e-07,0.0,0.0,0.0,1.2184696791468346e-07,0.0,0.0,0.0,1.2184696791468346e-07,-0.4519250690937042,0.1370110511779797,9.814298629760742,8.999999999999999e-08,0.0,0.0,0.0,8.999999999999999e-08,0.0,0.0,0.0,8.999999999999999e-08
1719006630.348379,37848,1719006630,341607104,base_link,0.016998987529112154,-0.016379591104905004,-0.8934307281218419,-0.44858039371766445,1.0,0.0,0.0,0.0,1.0,0.0,0.0,0.0,1.0,0.0008943004650063813,-7.650868792552497e-05,0.0003255467745475471,1.2184696791468346e-07,0.0,0.0,0.0,1.2184696791468346e-07,0.0,0.0,0.0,1.2184696791468346e-07,-0.43876102566719055,0.14598533511161924,9.814189910888672,8.999999999999999e-08,0.0,0.0,0.0,8.999999999999999e-08,0.0,0.0,0.0,8.999999999999999e-08
1719006630.355063,37849,1719006630,351607104,base_link,0.016995554063263175,-0.01638088034983599,-0.8934308334889631,-0.4485802040568462,1.0,0.0,0.0,0.0,1.0,0.0,0.0,0.0,1.0,0.000810749304946512,-0.0003743532579392195,4.683260340243583e-05,1.2184696791468346e-07,0.0,0.0,0.0,1.2184696791468346e-07,0.0,0.0,0.0,1.2184696791468346e-07,-0.43720829486846924,0.1400008499622357,9.80275821685791,8.999999999999999e-08,0.0,0.0,0.0,8.999999999999999e-08,0.0,0.0,0.0,8.999999999999999e-08
1719006630.3601213,37850,1719006630,356606080,base_link,0.01699565395623323,-0.016379479172918165,-0.8934320768209942,-0.4485777806130568,1.0,0.0,0.0,0.0,1.0,0.0,0.0,0.0,1.0,0.00010641507105901837,-0.0004167750594206154,0.0003644296666607261,1.2184696791468346e-07,0.0,0.0,0.0,1.2184696791468346e-07,0.0,0.0,0.0,1.2184696791468346e-07,-0.43129661679267883,0.12890368700027585,9.786038398742676,8.999999999999999e-08,0.0,0.0,0.0,8.999999999999999e-08,0.0,0.0,0.0,8.999999999999999e-08
1719006630.3685439,37851,1719006630,361606080,base_link,0.016996122428332597,-0.016379445340194067,-0.8934323507755095,-0.44857725377745034,1.0,0.0,0.0,0.0,1.0,0.0,0.0,0.0,1.0,-0.00019284343579784036,-3.637149347923632e-06,0.0005222634063102305,1.2184696791468346e-07,0.0,0.0,0.0,1.2184696791468346e-07,0.0,0.0,0.0,1.2184696791468346e-07,-0.46054378151893616,0.1358945071697247,9.794891357421875,8.999999999999999e-08,0.0,0.0,0.0,8.999999999999999e-08,0.0,0.0,0.0,8.999999999999999e-08
1719006630.3721795,37852,1719006630,366606080,base_link,0.01699798164353524,-0.01638017815617484,-0.8934329197579645,-0.4485759261517223,1.0,0.0,0.0,0.0,1.0,0.0,0.0,0.0,1.0,-0.0003496131976135075,0.0004999006632715465,0.0006019974243827163,1.2184696791468346e-07,0.0,0.0,0.0,1.2184696791468346e-07,0.0,0.0,0.0,1.2184696791468346e-07,-0.4477667212486267,0.13804371654987455,9.807910919189453,8.999999999999999e-08,0.0,0.0,0.0,8.999999999999999e-08,0.0,0.0,0.0,8.999999999999999e-08
1719006630.3782332,37853,1719006630,371606080,base_link,0.017001317212627206,-0.016379882428531722,-0.8934339945026014,-0.448573924176418,1.0,0.0,0.0,0.0,1.0,0.0,0.0,0.0,1.0,-0.00022301013814285398,0.000605833309236914,0.0006220994400791823,1.2184696791468346e-07,0.0,0.0,0.0,1.2184696791468346e-07,0.0,0.0,0.0,1.2184696791468346e-07,-0.43133723735809326,0.1312761604785931,9.790390014648438,8.999999999999999e-08,0.0,0.0,0.0,8.999999999999999e-08,0.0,0.0,0.0,8.999999999999999e-08
1719006630.3822322,37854,1719006630,376606080,base_link,0.017000529819770335,-0.016381691882464983,-0.8934344370445109,-0.4485729758723265,1.0,0.0,0.0,0.0,1.0,0.0,0.0,0.0,1.0,-0.0001017062459141016,0.0005981079884804786,0.0005116845131851732,1.2184696791468346e-07,0.0,0.0,0.0,1.2184696791468346e-07,0.0,0.0,0.0,1.2184696791468346e-07,-0.4492224156856537,0.12490274012088895,9.797148704528809,8.999999999999999e-08,0.0,0.0,0.0,8.999999999999999e-08,0.0,0.0,0.0,8.999999999999999e-08
1719006630.389104,37855,1719006630,381606080,base_link,0.017002862363838092,-0.016381084725008137,-0.8934336151809648,-0.4485743034980546,1.0,0.0,0.0,0.0,1.0,0.0,0.0,0.0,1.0,-0.0002484770375303924,0.0006150357075966895,-0.0001777417492121459,1.2184696791468346e-07,0.0,0.0,0.0,1.2184696791468346e-07,0.0,0.0,0.0,1.2184696791468346e-07,-0.43899673223495483,0.14666664600372434,9.79415225982666,8.999999999999999e-08,0.0,0.0,0.0,8.999999999999999e-08,0.0,0.0,0.0,8.999999999999999e-08
1719006630.3933208,37856,1719006630,386606080,base_link,0.017003781589073657,-0.016380223451689276,-0.8934329197579645,-0.4485759261517223,1.0,0.0,0.0,0.0,1.0,0.0,0.0,0.0,1.0,-0.00021506065968424082,0.0001994298363570123,-0.0005689227255061269,1.2184696791468346e-07,0.0,0.0,0.0,1.2184696791468346e-07,0.0,0.0,0.0,1.2184696791468346e-07,-0.4482986032962799,0.13448178768158078,9.797114372253418,8.999999999999999e-08,0.0,0.0,0.0,8.999999999999999e-08,0.0,0.0,0.0,8.999999999999999e-08
1719006630.3990545,37857,1719006630,391606080,base_link,0.017002961865797347,-0.016381051077499684,-0.8934322243349639,-0.4485770430432078,1.0,0.0,0.0,0.0,1.0,0.0,0.0,0.0,1.0,0.00012701534433290362,-0.00019120583601761617,-0.0006330518517643213,1.2184696791468346e-07,0.0,0.0,0.0,1.2184696791468346e-07,0.0,0.0,0.0,1.2184696791468346e-07,-0.4360619783401489,0.13415348529815793,9.79172420501709,8.999999999999999e-08,0.0,0.0,0.0,8.999999999999999e-08,0.0,0.0,0.0,8.999999999999999e-08
1719006630.4058068,37858,1719006630,401606080,base_link,0.016998778420651353,-0.0163804930021882,-0.8934336362543891,-0.44857445101202437,1.0,0.0,0.0,0.0,1.0,0.0,0.0,0.0,1.0,0.0002703887294046581,-0.0006882439483888447,0.0001615036744624377,1.2184696791468346e-07,0.0,0.0,0.0,1.2184696791468346e-07,0.0,0.0,0.0,1.2184696791468346e-07,-0.45134273171424866,0.14624233543872953,9.805672645568848,8.999999999999999e-08,0.0,0.0,0.0,8.999999999999999e-08,0.0,0.0,0.0,8.999999999999999e-08
1719006630.4124796,37859,1719006630,406606080,base_link,0.016999537228560676,-0.016378677888888075,-0.8934350903206628,-0.44857181683399244,1.0,0.0,0.0,0.0,1.0,0.0,0.0,0.0,1.0,-0.00021361710969358683,-0.0005085941520519554,0.0009529805392958225,1.2184696791468346e-07,0.0,0.0,0.0,1.2184696791468346e-07,0.0,0.0,0.0,1.2184696791468346e-07,-0.45338383316993713,0.13837675750255704,9.804472923278809,8.999999999999999e-08,0.0,0.0,0.0,8.999999999999999e-08,0.0,0.0,0.0,8.999999999999999e-08
1719006630.4188068,37860,1719006630,411606080,base_link,0.01699928889554262,-0.016377134980844418,-0.8934352589080569,-0.44857147965920435,1.0,0.0,0.0,0.0,1.0,0.0,0.0,0.0,1.0,-0.0004921069485135376,-0.00012147407687734806,0.0005831093876622617,1.2184696791468346e-07,0.0,0.0,0.0,1.2184696791468346e-07,0.0,0.0,0.0,1.2184696791468346e-07,-0.43133193254470825,0.1443149447441113,9.805330276489258,8.999999999999999e-08,0.0,0.0,0.0,8.999999999999999e-08,0.0,0.0,0.0,8.999999999999999e-08
1719006630.4213393,37861,1719006630,416606080,base_link,0.017000269591792103,-0.01637660736321643,-0.893435596082845,-0.4485708053096282,1.0,0.0,0.0,0.0,1.0,0.0,0.0,0.0,1.0,-0.000571302545722574,-3.030545485671604e-05,0.0004798522568307817,1.2184696791468346e-07,0.0,0.0,0.0,1.2184696791468346e-07,0.0,0.0,0.0,1.2184696791468346e-07,-0.4318317770957947,0.15505670011043668,9.801901817321777,8.999999999999999e-08,0.0,0.0,0.0,8.999999999999999e-08,0.0,0.0,0.0,8.999999999999999e-08
1719006630.4313803,37862,1719006630,421606080,base_link,0.01700028926580928,-0.016374670007592008,-0.8934352589080568,-0.44857156395290143,1.0,0.0,0.0,0.0,1.0,0.0,0.0,0.0,1.0,-0.0006156986346468329,-0.00014446266868617386,4.218472167849543e-05,1.2184696791468346e-07,0.0,0.0,0.0,1.2184696791468346e-07,0.0,0.0,0.0,1.2184696791468346e-07,-0.4291801452636719,0.1429825723171246,9.788337707519531,8.999999999999999e-08,0.0,0.0,0.0,8.999999999999999e-08,0.0,0.0,0.0,8.999999999999999e-08
1719006630.4337106,37863,1719006630,426606080,base_link,0.017001145867578036,-0.01637508044545661,-0.893435764670239,-0.44857029954744615,1.0,0.0,0.0,0.0,1.0,0.0,0.0,0.0,1.0,-0.0004877522587776184,0.00032996851950883865,0.00011723348870873447,1.2184696791468346e-07,0.0,0.0,0.0,1.2184696791468346e-07,0.0,0.0,0.0,1.2184696791468346e-07,-0.44641515612602234,0.13721930980682492,9.797781944274902,8.999999999999999e-08,0.0,0.0,0.0,8.999999999999999e-08,0.0,0.0,0.0,8.999999999999999e-08
1719006630.4392424,37864,1719006630,431606080,base_link,0.017003648295549338,-0.016375217463873302,-0.8934359121842087,-0.4485701520334764,1.0,0.0,0.0,0.0,1.0,0.0,0.0,0.0,1.0,-0.0006354096112772822,0.0007444436196237803,0.00015648989938199512,1.2184696791468346e-07,0.0,0.0,0.0,1.2184696791468346e-07,0.0,0.0,0.0,1.2184696791468346e-07,-0.44440701603889465,0.1411590576171887,9.816509246826172,8.999999999999999e-08,0.0,0.0,0.0,8.999999999999999e-08,0.0,0.0,0.0,8.999999999999999e-08
1719006630.4461884,37865,1719006630,441606080,base_link,0.017011108452371894,-0.01637505398019919,-0.8934354064220266,-0.4485707420893555,1.0,0.0,0.0,0.0,1.0,0.0,0.0,0.0,1.0,-0.0005849180743098259,0.0012093496043235064,-0.00010989670408889666,1.2184696791468346e-07,0.0,0.0,0.0,1.2184696791468346e-07,0.0,0.0,0.0,1.2184696791468346e-07,-0.4458780288696289,0.14364586770534635,9.784590721130371,8.999999999999999e-08,0.0,0.0,0.0,8.999999999999999e-08,0.0,0.0,0.0,8.999999999999999e-08
1719006630.4512928,37866,1719006630,446606080,base_link,0.017011901072425797,-0.016377085198995518,-0.8934346899256019,-0.4485720486416592,1.0,0.0,0.0,0.0,1.0,0.0,0.0,0.0,1.0,-0.00010285188909620047,0.0010388237424194813,-0.0003527511435095222,1.2184696791468346e-07,0.0,0.0,0.0,1.2184696791468346e-07,0.0,0.0,0.0,1.2184696791468346e-07,-0.430874228477478,0.14519834518432737,9.78622055053711,8.999999999999999e-08,0.0,0.0,0.0,8.999999999999999e-08,0.0,0.0,0.0,8.999999999999999e-08
1719006630.4583564,37867,1719006630,451606080,base_link,0.017012435543032573,-0.016378078551647263,-0.8934345424116321,-0.4485722804493261,1.0,0.0,0.0,0.0,1.0,0.0,0.0,0.0,1.0,0.0003995135775767267,0.0007334790425375104,-0.00032733610714785766,1.2184696791468346e-07,0.0,0.0,0.0,1.2184696791468346e-07,0.0,0.0,0.0,1.2184696791468346e-07,-0.4491095244884491,0.14314809441566587,9.781132698059082,8.999999999999999e-08,0.0,0.0,0.0,8.999999999999999e-08,0.0,0.0,0.0,8.999999999999999e-08
1719006630.46345,37868,1719006630,456608384,base_link,0.017013731002977355,-0.016381975056603416,-0.8934350481738143,-0.4485711003375678,1.0,0.0,0.0,0.0,1.0,0.0,0.0,0.0,1.0,0.0007043972727842629,0.0008824234246276319,0.00014911184553056944,1.2184696791468346e-07,0.0,0.0,0.0,1.2184696791468346e-07,0.0,0.0,0.0,1.2184696791468346e-07,-0.4480186402797699,0.1515677124261868,9.798966407775879,8.999999999999999e-08,0.0,0.0,0.0,8.999999999999999e-08,0.0,0.0,0.0,8.999999999999999e-08
1719006630.46989,37869,1719006630,466608384,base_link,0.017013257324260473,-0.016383871191457542,-0.8934365233135122,-0.44856802361762654,1.0,0.0,0.0,0.0,1.0,0.0,0.0,0.0,1.0,0.0005133762606419623,0.0004795563872903586,0.0005849693552590906,1.2184696791468346e-07,0.0,0.0,0.0,1.2184696791468346e-07,0.0,0.0,0.0,1.2184696791468346e-07,-0.4324508309364319,0.13772857189178586,9.800193786621094,8.999999999999999e-08,0.0,0.0,0.0,8.999999999999999e-08,0.0,0.0,0.0,8.999999999999999e-08
1719006630.4752367,37870,1719006630,471608384,base_link,0.01701230741496674,-0.016383266935712435,-0.893435596082845,-0.4485701309600521,1.0,0.0,0.0,0.0,1.0,0.0,0.0,0.0,1.0,0.0002524433075450361,-0.00013659564137924457,0.0003585388185456395,1.2184696791468346e-07,0.0,0.0,0.0,1.2184696791468346e-07,0.0,0.0,0.0,1.2184696791468346e-07,-0.4328876733779907,0.13725122809410215,9.79006290435791,8.999999999999999e-08,0.0,0.0,0.0,8.999999999999999e-08,0.0,0.0,0.0,8.999999999999999e-08
1719006630.482185,37871,1719006630,476608384,base_link,0.017012509732187302,-0.01638288286020767,-0.8934347952927232,-0.44857177468714393,1.0,0.0,0.0,0.0,1.0,0.0,0.0,0.0,1.0,-0.00011523731518536806,-0.00031123845838010317,-0.0004346511850599199,1.2184696791468346e-07,0.0,0.0,0.0,1.2184696791468346e-07,0.0,0.0,0.0,1.2184696791468346e-07,-0.4405316412448883,0.12943258881569028,9.802655220031738,8.999999999999999e-08,0.0,0.0,0.0,8.999999999999999e-08,0.0,0.0,0.0,8.999999999999999e-08
1719006630.4892125,37872,1719006630,481608384,base_link,0.01701187244631922,-0.01638251915842362,-0.8934351956877841,-0.44857095282359805,1.0,0.0,0.0,0.0,1.0,0.0,0.0,0.0,1.0,-0.000285958347376436,-0.0002472314517945052,-0.0003001827280968427,1.2184696791468346e-07,0.0,0.0,0.0,1.2184696791468346e-07,0.0,0.0,0.0,1.2184696791468346e-07,-0.449470192193985,0.11698600649833799,9.795860290527344,8.999999999999999e-08,0.0,0.0,0.0,8.999999999999999e-08,0.0,0.0,0.0,8.999999999999999e-08
1719006630.491077,37873,1719006630,486608384,base_link,0.017014673194952635,-0.01638213921940155,-0.8934344581179351,-0.44857228044932607,1.0,0.0,0.0,0.0,1.0,0.0,0.0,0.0,1.0,-0.00027799414237961173,9.005974425235759e-05,-0.000301127671264112,1.2184696791468346e-07,0.0,0.0,0.0,1.2184696791468346e-07,0.0,0.0,0.0,1.2184696791468346e-07,-0.44980892539024353,0.13222281634807706,9.808470726013184,8.999999999999999e-08,0.0,0.0,0.0,8.999999999999999e-08,0.0,0.0,0.0,8.999999999999999e-08
1719006630.4974616,37874,1719006630,491608384,base_link,0.017012722462642897,-0.016385064597583102,-0.8934351956877841,-0.448570784236204,1.0,0.0,0.0,0.0,1.0,0.0,0.0,0.0,1.0,0.0002932181232608855,0.00019140024960506707,3.697292413562534e-05,1.2184696791468346e-07,0.0,0.0,0.0,1.2184696791468346e-07,0.0,0.0,0.0,1.2184696791468346e-07,-0.44915515184402466,0.14292344450950742,9.799641609191895,8.999999999999999e-08,0.0,0.0,0.0,8.999999999999999e-08,0.0,0.0,0.0,8.999999999999999e-08
1719006630.502122,37875,1719006630,496608384,base_link,0.017013333838900496,-0.01638604689903482,-0.8934358278905117,-0.4485693090965061,1.0,0.0,0.0,0.0,1.0,0.0,0.0,0.0,1.0,0.0004200704279355705,0.00020328009850345557,0.00037840200820937753,1.2184696791468346e-07,0.0,0.0,0.0,1.2184696791468346e-07,0.0,0.0,0.0,1.2184696791468346e-07,-0.4405503273010254,0.14880600571632505,9.802581787109375,8.999999999999999e-08,0.0,0.0,0.0,8.999999999999999e-08,0.0,0.0,0.0,8.999999999999999e-08
1719006630.509487,37876,1719006630,501608384,base_link,0.017011284674766328,-0.016384426653170508,-0.893435933257633,-0.4485694566104759,1.0,0.0,0.0,0.0,1.0,0.0,0.0,0.0,1.0,8.241477189585567e-05,-0.0002909933100454509,0.0001318688737228513,1.2184696791468346e-07,0.0,0.0,0.0,1.2184696791468346e-07,0.0,0.0,0.0,1.2184696791468346e-07,-0.4383014142513275,0.14323261380195737,9.79605770111084,8.999999999999999e-08,0.0,0.0,0.0,8.999999999999999e-08,0.0,0.0,0.0,8.999999999999999e-08
1719006630.5143285,37877,1719006630,506608384,base_link,0.01701137645940713,-0.016384793215507266,-0.8934353642751781,-0.44857036276771894,1.0,0.0,0.0,0.0,1.0,0.0,0.0,0.0,1.0,-0.00010837835725396872,-0.0002506510354578495,4.3224892579019104e-05,1.2184696791468346e-07,0.0,0.0,0.0,1.2184696791468346e-07,0.0,0.0,0.0,1.2184696791468346e-07,-0.4447273313999176,0.14157082140445829,9.78602409362793,8.999999999999999e-08,0.0,0.0,0.0,8.999999999999999e-08,0.0,0.0,0.0,8.999999999999999e-08
1719006630.5203514,37878,1719006630,516608384,base_link,0.01700883989001899,-0.01638047828783435,-0.8934367761946032,-0.4485680236176265,1.0,0.0,0.0,0.0,1.0,0.0,0.0,0.0,1.0,-0.0005050735780969262,-0.000780335976742208,0.0002835128107108177,1.2184696791468346e-07,0.0,0.0,0.0,1.2184696791468346e-07,0.0,0.0,0.0,1.2184696791468346e-07,-0.4352886974811554,0.13389953970909238,9.813054084777832,8.999999999999999e-08,0.0,0.0,0.0,8.999999999999999e-08,0.0,0.0,0.0,8.999999999999999e-08
1719006630.527523,37879,1719006630,521608384,base_link,0.017009392923349083,-0.016380570628122083,-0.8934375137644521,-0.4485665274045044,1.0,0.0,0.0,0.0,1.0,0.0,0.0,0.0,1.0,-0.0004730456857942045,-0.0004926483961753547,0.0003495978889986873,1.2184696791468346e-07,0.0,0.0,0.0,1.2184696791468346e-07,0.0,0.0,0.0,1.2184696791468346e-07,-0.4456445872783661,0.1346626877784741,9.783085823059082,8.999999999999999e-08,0.0,0.0,0.0,8.999999999999999e-08,0.0,0.0,0.0,8.999999999999999e-08
1719006630.532025,37880,1719006630,526608384,base_link,0.017010467441611436,-0.01637924586294669,-0.8934365865337849,-0.44856838186583886,1.0,0.0,0.0,0.0,1.0,0.0,0.0,0.0,1.0,-0.0005042622797191143,-8.037069346755743e-05,2.874853089451791e-05,1.2184696791468346e-07,0.0,0.0,0.0,1.2184696791468346e-07,0.0,0.0,0.0,1.2184696791468346e-07,-0.43611717224121094,0.14270134270191312,9.801311492919922,8.999999999999999e-08,0.0,0.0,0.0,8.999999999999999e-08,0.0,0.0,0.0,8.999999999999999e-08
1719006630.5386002,37881,1719006630,531608384,base_link,0.017010953303401716,-0.01637973991538429,-0.8934367761946032,-0.4485676864428384,1.0,0.0,0.0,0.0,1.0,0.0,0.0,0.0,1.0,-0.0004276864347048104,0.00018340814858675,-0.00026981186238117516,1.2184696791468346e-07,0.0,0.0,0.0,1.2184696791468346e-07,0.0,0.0,0.0,1.2184696791468346e-07,-0.448625773191452,0.13200913369655728,9.806140899658203,8.999999999999999e-08,0.0,0.0,0.0,8.999999999999999e-08,0.0,0.0,0.0,8.999999999999999e-08
1719006630.5472913,37882,1719006630,536608384,base_link,0.017011543935507314,-0.016378369566581244,-0.8934366076072091,-0.4485683607924146,1.0,0.0,0.0,0.0,1.0,0.0,0.0,0.0,1.0,-0.0004376301949378103,0.00023212294036056844,-0.00021987280342727902,1.2184696791468346e-07,0.0,0.0,0.0,1.2184696791468346e-07,0.0,0.0,0.0,1.2184696791468346e-07,-0.44337424635887146,0.14471463859081388,9.790599822998047,8.999999999999999e-08,0.0,0.0,0.0,8.999999999999999e-08,0.0,0.0,0.0,8.999999999999999e-08
1719006630.5504327,37883,1719006630,541608384,base_link,0.017013533830635762,-0.01637772310224908,-0.8934356171562691,-0.44857019418032484,1.0,0.0,0.0,0.0,1.0,0.0,0.0,0.0,1.0,-0.0006059167790226638,0.0003374808002263307,-0.0004431068082340062,1.2184696791468346e-07,0.0,0.0,0.0,1.2184696791468346e-07,0.0,0.0,0.0,1.2184696791468346e-07,-0.44413989782333374,0.13614976406097531,9.808968544006348,8.999999999999999e-08,0.0,0.0,0.0,8.999999999999999e-08,0.0,0.0,0.0,8.999999999999999e-08
1719006630.553444,37884,1719006630,546608384,base_link,0.017013816119855012,-0.016376408215241313,-0.8934361229184512,-0.4485691826559606,1.0,0.0,0.0,0.0,1.0,0.0,0.0,0.0,1.0,-0.00048365522525273263,-5.150854121893649e-06,-4.179478855803609e-05,1.2184696791468346e-07,0.0,0.0,0.0,1.2184696791468346e-07,0.0,0.0,0.0,1.2184696791468346e-07,-0.4443035125732422,0.12831556797027707,9.790454864501953,8.999999999999999e-08,0.0,0.0,0.0,8.999999999999999e-08,0.0,0.0,0.0,8.999999999999999e-08
1719006630.5595067,37885,1719006630,551607872,base_link,0.017013653274145897,-0.016375475242889143,-0.8934360807716027,-0.4485692248028091,1.0,0.0,0.0,0.0,1.0,0.0,0.0,0.0,1.0,-0.00048493180656805634,-0.0001830432884162292,7.325143087655328e-06,1.2184696791468346e-07,0.0,0.0,0.0,1.2184696791468346e-07,0.0,0.0,0.0,1.2184696791468346e-07,-0.4273192286491394,0.13363154232502103,9.794708251953125,8.999999999999999e-08,0.0,0.0,0.0,8.999999999999999e-08,0.0,0.0,0.0,8.999999999999999e-08
1719006630.5660398,37886,1719006630,561607872,base_link,0.01701501294218021,-0.01637162627661466,-0.893436270432421,-0.4485688665545967,1.0,0.0,0.0,0.0,1.0,0.0,0.0,0.0,1.0,-0.0006350517505779862,-0.00016056250024121255,0.00010851543629541994,1.2184696791468346e-07,0.0,0.0,0.0,1.2184696791468346e-07,0.0,0.0,0.0,1.2184696791468346e-07,-0.42717546224594116,0.1248231604695332,9.796856880187988,8.999999999999999e-08,0.0,0.0,0.0,8.999999999999999e-08,0.0,0.0,0.0,8.999999999999999e-08
1719006630.5721312,37887,1719006630,566607872,base_link,0.01701608861289545,-0.016371627984714476,-0.8934365865337849,-0.44856846615953594,1.0,0.0,0.0,0.0,1.0,0.0,0.0,0.0,1.0,-0.0006351853371597826,4.432231071405115e-05,0.00015923602040857077,1.2184696791468346e-07,0.0,0.0,0.0,1.2184696791468346e-07,0.0,0.0,0.0,1.2184696791468346e-07,-0.43458858132362366,0.1359492838382733,9.798852920532227,8.999999999999999e-08,0.0,0.0,0.0,8.999999999999999e-08,0.0,0.0,0.0,8.999999999999999e-08
1719006630.5786836,37888,1719006630,571607872,base_link,0.017015620531806885,-0.016371158298423675,-0.8934367551211789,-0.44856812898474785,1.0,0.0,0.0,0.0,1.0,0.0,0.0,0.0,1.0,-0.0002714811125770211,-4.0519793401472264e-05,6.316357757896185e-05,1.2184696791468346e-07,0.0,0.0,0.0,1.2184696791468346e-07,0.0,0.0,0.0,1.2184696791468346e-07,-0.4309915006160736,0.13375064730644345,9.792903900146484,8.999999999999999e-08,0.0,0.0,0.0,8.999999999999999e-08,0.0,0.0,0.0,8.999999999999999e-08
1719006630.5835655,37889,1719006630,576607872,base_link,0.017015679080529547,-0.016369466559321214,-0.8934364600932394,-0.4485687611874755,1.0,0.0,0.0,0.0,1.0,0.0,0.0,0.0,1.0,-0.0003813949879258871,-5.244936619419605e-05,-2.9335496947169297e-05,1.2184696791468346e-07,0.0,0.0,0.0,1.2184696791468346e-07,0.0,0.0,0.0,1.2184696791468346e-07,-0.4398089051246643,0.14771118760109067,9.810970306396484,8.999999999999999e-08,0.0,0.0,0.0,8.999999999999999e-08,0.0,0.0,0.0,8.999999999999999e-08
1719006630.5897388,37890,1719006630,581607872,base_link,0.017016218181527397,-0.01636889057983092,-0.8934365865337849,-0.44856846615953594,1.0,0.0,0.0,0.0,1.0,0.0,0.0,0.0,1.0,-0.00042397191282361746,-0.0003730567405000329,-3.4571858122944784e-05,1.2184696791468346e-07,0.0,0.0,0.0,1.2184696791468346e-07,0.0,0.0,0.0,1.2184696791468346e-07,-0.4417068064212799,0.13606861233711362,9.801239013671875,8.999999999999999e-08,0.0,0.0,0.0,8.999999999999999e-08,0.0,0.0,0.0,8.999999999999999e-08
1719006630.5957005,37891,1719006630,591607872,base_link,0.01701131813705914,-0.01637149362105533,-0.8934365865337849,-0.4485685504532329,1.0,0.0,0.0,0.0,1.0,0.0,0.0,0.0,1.0,0.0004912563017569482,-0.0005130101926624775,4.263181472197181e-05,1.2184696791468346e-07,0.0,0.0,0.0,1.2184696791468346e-07,0.0,0.0,0.0,1.2184696791468346e-07,-0.44147351384162903,0.14005938172340512,9.79047966003418,8.999999999999999e-08,0.0,0.0,0.0,8.999999999999999e-08,0.0,0.0,0.0,8.999999999999999e-08
1719006630.6022916,37892,1719006630,596607872,base_link,0.017010694433671533,-0.01636945680463069,-0.8934363968729666,-0.44856907728883927,1.0,0.0,0.0,0.0,1.0,0.0,0.0,0.0,1.0,0.0003433296806178987,-0.0005700154579244554,-0.00012160866754129522,1.2184696791468346e-07,0.0,0.0,0.0,1.2184696791468346e-07,0.0,0.0,0.0,1.2184696791468346e-07,-0.44694989919662476,0.1216638907790196,9.799800872802734,8.999999999999999e-08,0.0,0.0,0.0,8.999999999999999e-08,0.0,0.0,0.0,8.999999999999999e-08
1719006630.609876,37893,1719006630,601607872,base_link,0.017010087173317107,-0.016368689024052446,-0.8934366919009062,-0.4485685293798087,1.0,0.0,0.0,0.0,1.0,0.0,0.0,0.0,1.0,1.0282557923346758e-05,-0.00021864175505470484,2.4734181351959972e-06,1.2184696791468346e-07,0.0,0.0,0.0,1.2184696791468346e-07,0.0,0.0,0.0,1.2184696791468346e-07,-0.46508315205574036,0.15087519586086393,9.808652877807617,8.999999999999999e-08,0.0,0.0,0.0,8.999999999999999e-08,0.0,0.0,0.0,8.999999999999999e-08
1719006630.6148057,37894,1719006630,606607872,base_link,0.017010306777331004,-0.01637088759547186,-0.8934362704324211,-0.44856911943568784,1.0,0.0,0.0,0.0,1.0,0.0,0.0,0.0,1.0,0.00020091159967705607,-0.0001224688021466136,-9.822682477533816e-05,1.2184696791468346e-07,0.0,0.0,0.0,1.2184696791468346e-07,0.0,0.0,0.0,1.2184696791468346e-07,-0.44834402203559875,0.13571766018867612,9.799966812133789,8.999999999999999e-08,0.0,0.0,0.0,8.999999999999999e-08,0.0,0.0,0.0,8.999999999999999e-08
1719006630.622364,37895,1719006630,616607872,base_link,0.017006682230677132,-0.016370368580081507,-0.8934356593031176,-0.4485704892082644,1.0,0.0,0.0,0.0,1.0,0.0,0.0,0.0,1.0,0.0002530060592107475,-0.00035680131986737257,-0.00027078046696260566,1.2184696791468346e-07,0.0,0.0,0.0,1.2184696791468346e-07,0.0,0.0,0.0,1.2184696791468346e-07,-0.43093129992485046,0.13660934567451596,9.813192367553711,8.999999999999999e-08,0.0,0.0,0.0,8.999999999999999e-08,0.0,0.0,0.0,8.999999999999999e-08
1719006630.6256263,37896,1719006630,621607872,base_link,0.017005612466282946,-0.016371730738237236,-0.8934357014499661,-0.44857061564880996,1.0,0.0,0.0,0.0,1.0,0.0,0.0,0.0,1.0,0.00025791622465476394,-0.0004629786126315594,-0.0003601808275561779,1.2184696791468346e-07,0.0,0.0,0.0,1.2184696791468346e-07,0.0,0.0,0.0,1.2184696791468346e-07,-0.4399767518043518,0.13325169682502866,9.795999526977539,8.999999999999999e-08,0.0,0.0,0.0,8.999999999999999e-08,0.0,0.0,0.0,8.999999999999999e-08
1719006630.6312737,37897,1719006630,626607872,base_link,0.017007197068425763,-0.016372919925562043,-0.8934366919009061,-0.44856827649871756,1.0,0.0,0.0,0.0,1.0,0.0,0.0,0.0,1.0,0.0001998437219299376,-0.00018149595416616648,-1.4891324099153258e-05,1.2184696791468346e-07,0.0,0.0,0.0,1.2184696791468346e-07,0.0,0.0,0.0,1.2184696791468346e-07,-0.44552645087242126,0.14199411869049192,9.783051490783691,8.999999999999999e-08,0.0,0.0,0.0,8.999999999999999e-08,0.0,0.0,0.0,8.999999999999999e-08
1719006630.6388302,37898,1719006630,631607872,base_link,0.01700376726573061,-0.016372050749709086,-0.8934367972680275,-0.44856842401268743,1.0,0.0,0.0,0.0,1.0,0.0,0.0,0.0,1.0,0.00028945045778527856,-0.0003886527265422046,0.0001285082544200123,1.2184696791468346e-07,0.0,0.0,0.0,1.2184696791468346e-07,0.0,0.0,0.0,1.2184696791468346e-07,-0.4387516975402832,0.1337178349494946,9.81319522857666,8.999999999999999e-08,0.0,0.0,0.0,8.999999999999999e-08,0.0,0.0,0.0,8.999999999999999e-08
1719006630.6435432,37899,1719006630,636607872,base_link,0.01700394659563194,-0.016373220118960103,-0.8934369026351487,-0.44856823435186904,1.0,0.0,0.0,0.0,1.0,0.0,0.0,0.0,1.0,-0.00010668853064998984,-0.00014832233136985448,0.0002945493324659765,1.2184696791468346e-07,0.0,0.0,0.0,1.2184696791468346e-07,0.0,0.0,0.0,1.2184696791468346e-07,-0.452044278383255,0.13879595696926236,9.78454875946045,8.999999999999999e-08,0.0,0.0,0.0,8.999999999999999e-08,0.0,0.0,0.0,8.999999999999999e-08
1719006630.6500356,37900,1719006630,641607872,base_link,0.01700552080511924,-0.016371429906874183,-0.8934381038203313,-0.4485656001738372,1.0,0.0,0.0,0.0,1.0,0.0,0.0,0.0,1.0,-0.0005172539968043566,-0.00010704653686843807,0.0004820682224817574,1.2184696791468346e-07,0.0,0.0,0.0,1.2184696791468346e-07,0.0,0.0,0.0,1.2184696791468346e-07,-0.4346410632133484,0.1407403051853192,9.802340507507324,8.999999999999999e-08,0.0,0.0,0.0,8.999999999999999e-08,0.0,0.0,0.0,8.999999999999999e-08
1719006630.6529741,37901,1719006630,646607872,base_link,0.017003998847022743,-0.016369427334763955,-0.8934380406000585,-0.448566084862595,1.0,0.0,0.0,0.0,1.0,0.0,0.0,0.0,1.0,-0.000628782669082284,-0.00024421192938461894,0.00028823310276493436,1.2184696791468346e-07,0.0,0.0,0.0,1.2184696791468346e-07,0.0,0.0,0.0,1.2184696791468346e-07,-0.45696502923965454,0.14382021129131436,9.786751747131348,8.999999999999999e-08,0.0,0.0,0.0,8.999999999999999e-08,0.0,0.0,0.0,8.999999999999999e-08
1719006630.6623335,37902,1719006630,656608384,base_link,0.017002798340964208,-0.01637021954322754,-0.8934369658554215,-0.44856808683789934,1.0,0.0,0.0,0.0,1.0,0.0,0.0,0.0,1.0,8.222297765314579e-06,-0.00048820592928677803,-0.00025024721981026227,1.2184696791468346e-07,0.0,0.0,0.0,1.2184696791468346e-07,0.0,0.0,0.0,1.2184696791468346e-07,-0.4518171548843384,0.141222268342973,9.795293807983398,8.999999999999999e-08,0.0,0.0,0.0,8.999999999999999e-08,0.0,0.0,0.0,8.999999999999999e-08
1719006630.6700487,37903,1719006630,661608384,base_link,0.01699852099148728,-0.01636992659381907,-0.8934374716176037,-0.4485672439009291,1.0,0.0,0.0,0.0,1.0,0.0,0.0,0.0,1.0,0.0004281382425688207,-0.000790672202128917,2.177001442760239e-05,1.2184696791468346e-07,0.0,0.0,0.0,1.2184696791468346e-07,0.0,0.0,0.0,1.2184696791468346e-07,-0.4514313042163849,0.13748256862163663,9.799202919006348,8.999999999999999e-08,0.0,0.0,0.0,8.999999999999999e-08,0.0,0.0,0.0,8.999999999999999e-08
1719006630.673398,37904,1719006630,666608384,base_link,0.017000269941643872,-0.016370893481213403,-0.89343799845321,-0.4485662955968376,1.0,0.0,0.0,0.0,1.0,0.0,0.0,0.0,1.0,0.00043906603241339326,-0.0003648986457847059,0.0001494056778028608,1.2184696791468346e-07,0.0,0.0,0.0,1.2184696791468346e-07,0.0,0.0,0.0,1.2184696791468346e-07,-0.4461079239845276,0.14510580897331357,9.79357624053955,8.999999999999999e-08,0.0,0.0,0.0,8.999999999999999e-08,0.0,0.0,0.0,8.999999999999999e-08
1719006630.6795926,37905,1719006630,671608384,base_link,0.01699704655149294,-0.016371848844078843,-0.8934371976630884,-0.44856768644283845,1.0,0.0,0.0,0.0,1.0,0.0,0.0,0.0,1.0,0.0004084741813130677,-0.0003614232409745455,8.601282024756078e-05,1.2184696791468346e-07,0.0,0.0,0.0,1.2184696791468346e-07,0.0,0.0,0.0,1.2184696791468346e-07,-0.4493289589881897,0.1379951536655438,9.807004928588867,8.999999999999999e-08,0.0,0.0,0.0,8.999999999999999e-08,0.0,0.0,0.0,8.999999999999999e-08
1719006630.6858308,37906,1719006630,681608384,base_link,0.016995461578918836,-0.01637377889397513,-0.8934394103726351,-0.44856353497826007,1.0,0.0,0.0,0.0,1.0,0.0,0.0,0.0,1.0,0.000543215952347964,-0.0003212547162547707,0.0005732850986532867,1.2184696791468346e-07,0.0,0.0,0.0,1.2184696791468346e-07,0.0,0.0,0.0,1.2184696791468346e-07,-0.4365542531013489,0.14749623835086942,9.784177780151367,8.999999999999999e-08,0.0,0.0,0.0,8.999999999999999e-08,0.0,0.0,0.0,8.999999999999999e-08
1719006630.6924622,37907,1719006630,686608384,base_link,0.016996758602906822,-0.01637353290702188,-0.8934397264739989,-0.44856271311471413,1.0,0.0,0.0,0.0,1.0,0.0,0.0,0.0,1.0,5.824328400194645e-05,5.927549136686146e-05,0.0006168502732180059,1.2184696791468346e-07,0.0,0.0,0.0,1.2184696791468346e-07,0.0,0.0,0.0,1.2184696791468346e-07,-0.44425174593925476,0.14406058192253232,9.78270149230957,8.999999999999999e-08,0.0,0.0,0.0,8.999999999999999e-08,0.0,0.0,0.0,8.999999999999999e-08
1719006630.6985328,37908,1719006630,691608384,base_link,0.01699672374120693,-0.01637060431843585,-0.8934394314460594,-0.4485634296111389,1.0,0.0,0.0,0.0,1.0,0.0,0.0,0.0,1.0,-0.0006133332499302924,-0.00017045981076080352,3.683421527966859e-05,1.2184696791468346e-07,0.0,0.0,0.0,1.2184696791468346e-07,0.0,0.0,0.0,1.2184696791468346e-07,-0.43475645780563354,0.15068016946315885,9.807489395141602,8.999999999999999e-08,0.0,0.0,0.0,8.999999999999999e-08,0.0,0.0,0.0,8.999999999999999e-08
1719006630.703374,37909,1719006630,696608384,base_link,0.01699580305482574,-0.016369717958687136,-0.8934394525194836,-0.4485634085377146,1.0,0.0,0.0,0.0,1.0,0.0,0.0,0.0,1.0,-0.0005223390180617571,-0.00030149263329803944,5.4867588914930854e-05,1.2184696791468346e-07,0.0,0.0,0.0,1.2184696791468346e-07,0.0,0.0,0.0,1.2184696791468346e-07,-0.44665589928627014,0.11929824203252912,9.798540115356445,8.999999999999999e-08,0.0,0.0,0.0,8.999999999999999e-08,0.0,0.0,0.0,8.999999999999999e-08
1719006630.709924,37910,1719006630,701608384,base_link,0.016995773440902397,-0.0163688914647501,-0.8934394946663322,-0.4485633663908661,1.0,0.0,0.0,0.0,1.0,0.0,0.0,0.0,1.0,-0.0004119710356462747,-0.00035360478796064854,0.00011419813381507997,1.2184696791468346e-07,0.0,0.0,0.0,1.2184696791468346e-07,0.0,0.0,0.0,1.2184696791468346e-07,-0.42970624566078186,0.13737905025482297,9.802424430847168,8.999999999999999e-08,0.0,0.0,0.0,8.999999999999999e-08,0.0,0.0,0.0,8.999999999999999e-08
1719006630.7153494,37911,1719006630,711608384,base_link,0.016995296078452172,-0.016369408339870804,-0.8934400847222113,-0.44856218627910777,1.0,0.0,0.0,0.0,1.0,0.0,0.0,0.0,1.0,-7.361086318269372e-05,-0.0001970802404684946,9.406777098774913e-05,1.2184696791468346e-07,0.0,0.0,0.0,1.2184696791468346e-07,0.0,0.0,0.0,1.2184696791468346e-07,-0.43431559205055237,0.13452115654945493,9.80720043182373,8.999999999999999e-08,0.0,0.0,0.0,8.999999999999999e-08,0.0,0.0,0.0,8.999999999999999e-08
1719006630.7213817,37912,1719006630,716608384,base_link,0.01699334855654691,-0.016369451351058984,-0.8934403376033023,-0.44856176481062265,1.0,0.0,0.0,0.0,1.0,0.0,0.0,0.0,1.0,0.00012543628690764308,-0.0003744842833839357,0.0001568582956679166,1.2184696791468346e-07,0.0,0.0,0.0,1.2184696791468346e-07,0.0,0.0,0.0,1.2184696791468346e-07,-0.4329441785812378,0.13066248595714688,9.812732696533203,8.999999999999999e-08,0.0,0.0,0.0,8.999999999999999e-08,0.0,0.0,0.0,8.999999999999999e-08
1719006630.7301157,37913,1719006630,721608384,base_link,0.01699491015079098,-0.016369572996577316,-0.8934399372082414,-0.4485626709678656,1.0,0.0,0.0,0.0,1.0,0.0,0.0,0.0,1.0,-3.318488597869873e-05,8.254087879322468e-05,-7.136812200769783e-05,1.2184696791468346e-07,0.0,0.0,0.0,1.2184696791468346e-07,0.0,0.0,0.0,1.2184696791468346e-07,-0.43599724769592285,0.14178106188774228,9.782898902893066,8.999999999999999e-08,0.0,0.0,0.0,8.999999999999999e-08,0.0,0.0,0.0,8.999999999999999e-08
1719006630.7365668,37914,1719006630,726608384,base_link,0.01699632139109207,-0.016369542065564957,-0.8934395157397563,-0.4485632610237448,1.0,0.0,0.0,0.0,1.0,0.0,0.0,0.0,1.0,-0.00011290807742625475,0.00030513969250023365,-0.00022068267571739855,1.2184696791468346e-07,0.0,0.0,0.0,1.2184696791468346e-07,0.0,0.0,0.0,1.2184696791468346e-07,-0.43659287691116333,0.13792482018470884,9.80256462097168,8.999999999999999e-08,0.0,0.0,0.0,8.999999999999999e-08,0.0,0.0,0.0,8.999999999999999e-08
1719006630.739334,37915,1719006630,731608384,base_link,0.01699594229583015,-0.016369752573432837,-0.8934395789600291,-0.448563197803472,1.0,0.0,0.0,0.0,1.0,0.0,0.0,0.0,1.0,0.00014139519771561027,2.9556009394582358e-05,-1.9347120542079214e-05,1.2184696791468346e-07,0.0,0.0,0.0,1.2184696791468346e-07,0.0,0.0,0.0,1.2184696791468346e-07,-0.4299493432044983,0.1451207846403134,9.80424976348877,8.999999999999999e-08,0.0,0.0,0.0,8.999999999999999e-08,0.0,0.0,0.0,8.999999999999999e-08
1719006630.7453847,37916,1719006630,741608384,base_link,0.016995054433776774,-0.016370948634315943,-0.8934396000334534,-0.4485630081426537,1.0,0.0,0.0,0.0,1.0,0.0,0.0,0.0,1.0,0.00012769881868734956,-0.0001565148268127814,-1.888378756120799e-05,1.2184696791468346e-07,0.0,0.0,0.0,1.2184696791468346e-07,0.0,0.0,0.0,1.2184696791468346e-07,-0.4350280165672302,0.13768556714058042,9.80239200592041,8.999999999999999e-08,0.0,0.0,0.0,8.999999999999999e-08,0.0,0.0,0.0,8.999999999999999e-08
1719006630.7522216,37917,1719006630,746608384,base_link,0.01699440117820437,-0.016370353289501212,-0.8934406958515146,-0.4485610693876222,1.0,0.0,0.0,0.0,1.0,0.0,0.0,0.0,1.0,-8.459348464384675e-05,-2.7822112315334342e-05,0.00029545434517785907,1.2184696791468346e-07,0.0,0.0,0.0,1.2184696791468346e-07,0.0,0.0,0.0,1.2184696791468346e-07,-0.4538412392139435,0.12736007571220517,9.800419807434082,8.999999999999999e-08,0.0,0.0,0.0,8.999999999999999e-08,0.0,0.0,0.0,8.999999999999999e-08
1719006630.7587376,37918,1719006630,751608384,base_link,0.016995071494195435,-0.016371271382863404,-0.8934420024038185,-0.44855824554877194,1.0,0.0,0.0,0.0,1.0,0.0,0.0,0.0,1.0,-0.00016161560779437423,5.3905088861938654e-05,0.0007098049973137677,1.2184696791468346e-07,0.0,0.0,0.0,1.2184696791468346e-07,0.0,0.0,0.0,1.2184696791468346e-07,-0.4478701651096344,0.14820769429206967,9.807706832885742,8.999999999999999e-08,0.0,0.0,0.0,8.999999999999999e-08,0.0,0.0,0.0,8.999999999999999e-08
1719006630.7636065,37919,1719006630,756609408,base_link,0.0169952793884648,-0.01637222252692809,-0.8934419391835458,-0.4485583930627418,1.0,0.0,0.0,0.0,1.0,0.0,0.0,0.0,1.0,4.6623928938061e-05,8.531958155799665e-05,0.0006348646129481494,1.2184696791468346e-07,0.0,0.0,0.0,1.2184696791468346e-07,0.0,0.0,0.0,1.2184696791468346e-07,-0.4465547502040863,0.1451980471611035,9.78607177734375,8.999999999999999e-08,0.0,0.0,0.0,8.999999999999999e-08,0.0,0.0,0.0,8.999999999999999e-08
1719006630.7725291,37920,1719006630,766609408,base_link,0.016994970469352007,-0.016373743167935568,-0.8934429717813342,-0.4485565175279831,1.0,0.0,0.0,0.0,1.0,0.0,0.0,0.0,1.0,0.00032438040943816304,4.195691872155299e-05,0.00045443285489454865,1.2184696791468346e-07,0.0,0.0,0.0,1.2184696791468346e-07,0.0,0.0,0.0,1.2184696791468346e-07,-0.43443602323532104,0.14599987864494443,9.799104690551758,8.999999999999999e-08,0.0,0.0,0.0,8.999999999999999e-08,0.0,0.0,0.0,8.999999999999999e-08
1719006630.7758055,37921,1719006630,771609408,base_link,0.01699701057849919,-0.01637686341355294,-0.8934423606520309,-0.4485572972446805,1.0,0.0,0.0,0.0,1.0,0.0,0.0,0.0,1.0,0.0005787460249848664,0.0005966550670564175,1.620512921363108e-05,1.2184696791468346e-07,0.0,0.0,0.0,1.2184696791468346e-07,0.0,0.0,0.0,1.2184696791468346e-07,-0.4423461854457855,0.12863868474960446,9.786450386047363,8.999999999999999e-08,0.0,0.0,0.0,8.999999999999999e-08,0.0,0.0,0.0,8.999999999999999e-08
1719006630.7816281,37922,1719006630,776609408,base_link,0.016996684784183383,-0.016378854008384926,-0.8934424660191521,-0.4485571075838622,1.0,0.0,0.0,0.0,1.0,0.0,0.0,0.0,1.0,0.0005404619150795043,0.0006555305444635451,-8.883234113454827e-05,1.2184696791468346e-07,0.0,0.0,0.0,1.2184696791468346e-07,0.0,0.0,0.0,1.2184696791468346e-07,-0.44813451170921326,0.14081957936287046,9.809929847717285,8.999999999999999e-08,0.0,0.0,0.0,8.999999999999999e-08,0.0,0.0,0.0,8.999999999999999e-08
1719006630.7890997,37923,1719006630,781609408,base_link,0.016998144406926294,-0.0163794885571774,-0.8934423817254552,-0.44855710758386225,1.0,0.0,0.0,0.0,1.0,0.0,0.0,0.0,1.0,0.00025390920927748084,0.0005442905239760876,-0.00013926147948950535,1.2184696791468346e-07,0.0,0.0,0.0,1.2184696791468346e-07,0.0,0.0,0.0,1.2184696791468346e-07,-0.43933552503585815,0.14332026243209958,9.805999755859375,8.999999999999999e-08,0.0,0.0,0.0,8.999999999999999e-08,0.0,0.0,0.0,8.999999999999999e-08
1719006630.7903798,37924,1719006630,786609408,base_link,0.01699720805953352,-0.016380040314577512,-0.8934422552849096,-0.44855757119919587,1.0,0.0,0.0,0.0,1.0,0.0,0.0,0.0,1.0,0.0002519888221286237,0.0002818411448970437,-0.00010502553777769212,1.2184696791468346e-07,0.0,0.0,0.0,1.2184696791468346e-07,0.0,0.0,0.0,1.2184696791468346e-07,-0.44360461831092834,0.12656158208847165,9.80009937286377,8.999999999999999e-08,0.0,0.0,0.0,8.999999999999999e-08,0.0,0.0,0.0,8.999999999999999e-08
1719006630.7974613,37925,1719006630,791609408,base_link,0.016996958738698702,-0.01638140389271984,-0.8934405694109692,-0.4485606900659856,1.0,0.0,0.0,0.0,1.0,0.0,0.0,0.0,1.0,0.00031164783285930753,3.7055688153486604e-05,-0.0007541920058429241,1.2184696791468346e-07,0.0,0.0,0.0,1.2184696791468346e-07,0.0,0.0,0.0,1.2184696791468346e-07,-0.46723148226737976,0.12966085970401883,9.799155235290527,8.999999999999999e-08,0.0,0.0,0.0,8.999999999999999e-08,0.0,0.0,0.0,8.999999999999999e-08
1719006630.8028555,37926,1719006630,796609408,base_link,0.016998231540596508,-0.01638159832798582,-0.8934401057956355,-0.44856165944350135,1.0,0.0,0.0,0.0,1.0,0.0,0.0,0.0,1.0,6.401207065209746e-05,0.00014104184811003498,-0.0007390259997919202,1.2184696791468346e-07,0.0,0.0,0.0,1.2184696791468346e-07,0.0,0.0,0.0,1.2184696791468346e-07,-0.4567229151725769,0.14529484510421872,9.78148078918457,8.999999999999999e-08,0.0,0.0,0.0,8.999999999999999e-08,0.0,0.0,0.0,8.999999999999999e-08
1719006630.8113914,37927,1719006630,801609408,base_link,0.016998208656174855,-0.01638151057693013,-0.893439810767696,-0.44856220735253205,1.0,0.0,0.0,0.0,1.0,0.0,0.0,0.0,1.0,-5.1569833885878325e-05,0.0001049202110152691,-0.00047294097021222115,1.2184696791468346e-07,0.0,0.0,0.0,1.2184696791468346e-07,0.0,0.0,0.0,1.2184696791468346e-07,-0.4289058744907379,0.14027686417102933,9.785700798034668,8.999999999999999e-08,0.0,0.0,0.0,8.999999999999999e-08,0.0,0.0,0.0,8.999999999999999e-08
1719006630.8142455,37928,1719006630,806609408,base_link,0.01699874491719951,-0.016381912083284843,-0.8934392207118168,-0.4485633874642903,1.0,0.0,0.0,0.0,1.0,0.0,0.0,0.0,1.0,5.168793722987175e-05,4.4263397285249044e-05,-0.0003264804254285991,1.2184696791468346e-07,0.0,0.0,0.0,1.2184696791468346e-07,0.0,0.0,0.0,1.2184696791468346e-07,-0.4427149295806885,0.13724872469902158,9.793968200683594,8.999999999999999e-08,0.0,0.0,0.0,8.999999999999999e-08,0.0,0.0,0.0,8.999999999999999e-08
1719006630.820365,37929,1719006630,816609408,base_link,0.016996863393801655,-0.016382313198628748,-0.8934386306559376,-0.4485645675760487,1.0,0.0,0.0,0.0,1.0,0.0,0.0,0.0,1.0,0.00012135639553889632,-0.00022232758055906746,-0.00020508255693130192,1.2184696791468346e-07,0.0,0.0,0.0,1.2184696791468346e-07,0.0,0.0,0.0,1.2184696791468346e-07,-0.42518842220306396,0.12819400429725766,9.803725242614746,8.999999999999999e-08,0.0,0.0,0.0,8.999999999999999e-08,0.0,0.0,0.0,8.999999999999999e-08
1719006630.8275182,37930,1719006630,821609408,base_link,0.016998078367259854,-0.01638117725051151,-0.8934376402049977,-0.44856656955135293,1.0,0.0,0.0,0.0,1.0,0.0,0.0,0.0,1.0,-0.00015225040260702372,-8.713558781892068e-05,-0.000576667080167681,1.2184696791468346e-07,0.0,0.0,0.0,1.2184696791468346e-07,0.0,0.0,0.0,1.2184696791468346e-07,-0.4570385813713074,0.1382649689912808,9.79254150390625,8.999999999999999e-08,0.0,0.0,0.0,8.999999999999999e-08,0.0,0.0,0.0,8.999999999999999e-08
1719006630.8323138,37931,1719006630,826609408,base_link,0.016999121645817107,-0.016381948920618256,-0.8934380406000585,-0.44856566339410997,1.0,0.0,0.0,0.0,1.0,0.0,0.0,0.0,1.0,-0.00021055276738479733,0.00014264455239754167,-0.00013016260345466438,1.2184696791468346e-07,0.0,0.0,0.0,1.2184696791468346e-07,0.0,0.0,0.0,1.2184696791468346e-07,-0.43384841084480286,0.13535842299461484,9.794095039367676,8.999999999999999e-08,0.0,0.0,0.0,8.999999999999999e-08,0.0,0.0,0.0,8.999999999999999e-08
1719006630.83889,37932,1719006630,831609408,base_link,0.016999405087489247,-0.016379961165759457,-0.89343799845321,-0.44856604271574657,1.0,0.0,0.0,0.0,1.0,0.0,0.0,0.0,1.0,-0.0005688397213816643,0.00012676174810621882,-0.0003810127964243293,1.2184696791468346e-07,0.0,0.0,0.0,1.2184696791468346e-07,0.0,0.0,0.0,1.2184696791468346e-07,-0.451383113861084,0.14710089564323545,9.799681663513184,8.999999999999999e-08,0.0,0.0,0.0,8.999999999999999e-08,0.0,0.0,0.0,8.999999999999999e-08
1719006630.842513,37933,1719006630,836609408,base_link,0.016999937891155236,-0.0163799341242756,-0.893437092295967,-0.4485676232225657,1.0,0.0,0.0,0.0,1.0,0.0,0.0,0.0,1.0,-0.00043834291864186525,0.00011759563494706522,-0.00036246131639927626,1.2184696791468346e-07,0.0,0.0,0.0,1.2184696791468346e-07,0.0,0.0,0.0,1.2184696791468346e-07,-0.4436531364917755,0.15568220615387082,9.782977104187012,8.999999999999999e-08,0.0,0.0,0.0,8.999999999999999e-08,0.0,0.0,0.0,8.999999999999999e-08
1719006630.8510609,37934,1719006630,841609408,base_link,0.017000490842167267,-0.016380737774950013,-0.8934377244986946,-0.44856640096395883,1.0,0.0,0.0,0.0,1.0,0.0,0.0,0.0,1.0,-0.0002594561083242297,0.0002168891078326851,6.019813008606431e-05,1.2184696791468346e-07,0.0,0.0,0.0,1.2184696791468346e-07,0.0,0.0,0.0,1.2184696791468346e-07,-0.43323639035224915,0.14398163557052732,9.804827690124512,8.999999999999999e-08,0.0,0.0,0.0,8.999999999999999e-08,0.0,0.0,0.0,8.999999999999999e-08
1719006630.8536515,37935,1719006630,846609408,base_link,0.017002880453232547,-0.016380118331522194,-0.8934378930860887,-0.4485658952017767,1.0,0.0,0.0,0.0,1.0,0.0,0.0,0.0,1.0,-0.0003748326562345028,0.0003210449649486691,7.024599472060796e-05,1.2184696791468346e-07,0.0,0.0,0.0,1.2184696791468346e-07,0.0,0.0,0.0,1.2184696791468346e-07,-0.44397661089897156,0.14309224486351133,9.786706924438477,8.999999999999999e-08,0.0,0.0,0.0,8.999999999999999e-08,0.0,0.0,0.0,8.999999999999999e-08
1719006630.8604279,37936,1719006630,856609152,base_link,0.01700281793266332,-0.016379082399852102,-0.8934375348378764,-0.44856659062477716,1.0,0.0,0.0,0.0,1.0,0.0,0.0,0.0,1.0,-0.00024347228463739157,0.00011426032142480834,-7.763464236631991e-05,1.2184696791468346e-07,0.0,0.0,0.0,1.2184696791468346e-07,0.0,0.0,0.0,1.2184696791468346e-07,-0.4339507222175598,0.1439972072839749,9.8093843460083,8.999999999999999e-08,0.0,0.0,0.0,8.999999999999999e-08,0.0,0.0,0.0,8.999999999999999e-08
1719006630.8676429,37937,1719006630,861609152,base_link,0.017005999999146378,-0.016379640866174387,-0.893436270432421,-0.44856903514199076,1.0,0.0,0.0,0.0,1.0,0.0,0.0,0.0,1.0,-0.00042136842967011034,0.0005594475660473107,-0.0005600582226179541,1.2184696791468346e-07,0.0,0.0,0.0,1.2184696791468346e-07,0.0,0.0,0.0,1.2184696791468346e-07,-0.44046667218208313,0.1326400190591824,9.8049955368042,8.999999999999999e-08,0.0,0.0,0.0,8.999999999999999e-08,0.0,0.0,0.0,8.999999999999999e-08
1719006630.8732767,37938,1719006630,866609152,base_link,0.01700704613825634,-0.016379490347595282,-0.8934356382296934,-0.44857025740059764,1.0,0.0,0.0,0.0,1.0,0.0,0.0,0.0,1.0,-0.0003965712967328727,0.000509371981024742,-0.000718096154741943,1.2184696791468346e-07,0.0,0.0,0.0,1.2184696791468346e-07,0.0,0.0,0.0,1.2184696791468346e-07,-0.43273279070854187,0.13452818989753842,9.798491477966309,8.999999999999999e-08,0.0,0.0,0.0,8.999999999999999e-08,0.0,0.0,0.0,8.999999999999999e-08
1719006630.8790686,37939,1719006630,871609152,base_link,0.017007567005803123,-0.016379156506688766,-0.8934350692472385,-0.44857141643893167,1.0,0.0,0.0,0.0,1.0,0.0,0.0,0.0,1.0,-0.00026101042749360204,0.00027287506964057673,-0.0008319659973494709,1.2184696791468346e-07,0.0,0.0,0.0,1.2184696791468346e-07,0.0,0.0,0.0,1.2184696791468346e-07,-0.45102882385253906,0.13857550919056058,9.810152053833008,8.999999999999999e-08,0.0,0.0,0.0,8.999999999999999e-08,0.0,0.0,0.0,8.999999999999999e-08
1719006630.8824303,37940,1719006630,876609152,base_link,0.017007420520809127,-0.01638030661351293,-0.8934341841634198,-0.44857322875341754,1.0,0.0,0.0,0.0,1.0,0.0,0.0,0.0,1.0,-4.274293314665556e-05,0.00019294877711217842,-0.000730210798792541,1.2184696791468346e-07,0.0,0.0,0.0,1.2184696791468346e-07,0.0,0.0,0.0,1.2184696791468346e-07,-0.45307621359825134,0.13038571178913236,9.797989845275879,8.999999999999999e-08,0.0,0.0,0.0,8.999999999999999e-08,0.0,0.0,0.0,8.999999999999999e-08
1719006630.8890808,37941,1719006630,881609152,base_link,0.017008697891359455,-0.016379200464534675,-0.8934348374395717,-0.44857190112768947,1.0,0.0,0.0,0.0,1.0,0.0,0.0,0.0,1.0,-0.00011876714415848255,9.738240623846651e-05,0.00011562841245904564,1.2184696791468346e-07,0.0,0.0,0.0,1.2184696791468346e-07,0.0,0.0,0.0,1.2184696791468346e-07,-0.44453340768814087,0.14634938538074613,9.795591354370117,8.999999999999999e-08,0.0,0.0,0.0,8.999999999999999e-08,0.0,0.0,0.0,8.999999999999999e-08
1719006630.8933423,37942,1719006630,886609152,base_link,0.01700748596366961,-0.016380191121269837,-0.8934357435968147,-0.4485700677397793,1.0,0.0,0.0,0.0,1.0,0.0,0.0,0.0,1.0,0.00014602852752432227,-6.905486225150517e-05,0.0006191388820298016,1.2184696791468346e-07,0.0,0.0,0.0,1.2184696791468346e-07,0.0,0.0,0.0,1.2184696791468346e-07,-0.44031915068626404,0.15008512139320493,9.807869911193848,8.999999999999999e-08,0.0,0.0,0.0,8.999999999999999e-08,0.0,0.0,0.0,8.999999999999999e-08
1719006630.8994825,37943,1719006630,891609152,base_link,0.017008318569722857,-0.01638172927544533,-0.893435848963936,-0.448569709491567,1.0,0.0,0.0,0.0,1.0,0.0,0.0,0.0,1.0,7.75512307882309e-06,0.00020701538596767935,0.0002925703302025795,1.2184696791468346e-07,0.0,0.0,0.0,1.2184696791468346e-07,0.0,0.0,0.0,1.2184696791468346e-07,-0.4482908844947815,0.14274543523788571,9.795079231262207,8.999999999999999e-08,0.0,0.0,0.0,8.999999999999999e-08,0.0,0.0,0.0,8.999999999999999e-08
1719006630.9063766,37944,1719006630,901609152,base_link,0.017010781670239325,-0.0163814472743393,-0.8934366076072091,-0.4485680236176265,1.0,0.0,0.0,0.0,1.0,0.0,0.0,0.0,1.0,-0.00012098194565623999,0.00038349331589415675,0.0003163167275488376,1.2184696791468346e-07,0.0,0.0,0.0,1.2184696791468346e-07,0.0,0.0,0.0,1.2184696791468346e-07,-0.4485291540622711,0.14410477876663327,9.78443717956543,8.999999999999999e-08,0.0,0.0,0.0,8.999999999999999e-08,0.0,0.0,0.0,8.999999999999999e-08
1719006630.9121826,37945,1719006630,906609152,base_link,0.017011697767388475,-0.016380531177190148,-0.8934367340477547,-0.448567812883384,1.0,0.0,0.0,0.0,1.0,0.0,0.0,0.0,1.0,-0.0003742206608876586,0.0003764982102438808,0.00023361988132819528,1.2184696791468346e-07,0.0,0.0,0.0,1.2184696791468346e-07,0.0,0.0,0.0,1.2184696791468346e-07,-0.44104015827178955,0.15077275037765622,9.783326148986816,8.999999999999999e-08,0.0,0.0,0.0,8.999999999999999e-08,0.0,0.0,0.0,8.999999999999999e-08
1719006630.9187624,37946,1719006630,911609152,base_link,0.017011681468411904,-0.016380494792606084,-0.8934360175513301,-0.44856920372938486,1.0,0.0,0.0,0.0,1.0,0.0,0.0,0.0,1.0,-0.00031208957079797983,0.00012754647468682376,-0.00019943769439123574,1.2184696791468346e-07,0.0,0.0,0.0,1.2184696791468346e-07,0.0,0.0,0.0,1.2184696791468346e-07,-0.4437980651855469,0.11551554501056792,9.814467430114746,8.999999999999999e-08,0.0,0.0,0.0,8.999999999999999e-08,0.0,0.0,0.0,8.999999999999999e-08
1719006630.9295247,37947,1719006630,916609152,base_link,0.017012421795915972,-0.016381219068087767,-0.8934354274954508,-0.4485703838411431,1.0,0.0,0.0,0.0,1.0,0.0,0.0,0.0,1.0,-1.2381875421851873e-05,0.00019352856907062227,-0.0003776996163651347,1.2184696791468346e-07,0.0,0.0,0.0,1.2184696791468346e-07,0.0,0.0,0.0,1.2184696791468346e-07,-0.4440448582172394,0.12446078658104062,9.78964900970459,8.999999999999999e-08,0.0,0.0,0.0,8.999999999999999e-08,0.0,0.0,0.0,8.999999999999999e-08
1719006630.9304428,37948,1719006630,921609152,base_link,0.017012693486684546,-0.01638123186854664,-0.8934359754044815,-0.44856924587623337,1.0,0.0,0.0,0.0,1.0,0.0,0.0,0.0,1.0,-0.0001447882386855781,0.0001820671313907951,0.00010712235234677789,1.2184696791468346e-07,0.0,0.0,0.0,1.2184696791468346e-07,0.0,0.0,0.0,1.2184696791468346e-07,-0.43805742263793945,0.12508906424045682,9.788904190063477,8.999999999999999e-08,0.0,0.0,0.0,8.999999999999999e-08,0.0,0.0,0.0,8.999999999999999e-08
1719006630.935335,37949,1719006630,931609152,base_link,0.017012878908122572,-0.016380943714165368,-0.893437176589664,-0.4485668645792925,1.0,0.0,0.0,0.0,1.0,0.0,0.0,0.0,1.0,-9.915832197293639e-05,4.42331656813622e-05,0.00040744192665442824,1.2184696791468346e-07,0.0,0.0,0.0,1.2184696791468346e-07,0.0,0.0,0.0,1.2184696791468346e-07,-0.4404921233654022,0.15008999407291532,9.794011116027832,8.999999999999999e-08,0.0,0.0,0.0,8.999999999999999e-08,0.0,0.0,0.0,8.999999999999999e-08
1719006630.941352,37950,1719006630,936609152,base_link,0.017015672268709793,-0.01638090833797758,-0.8934372187365125,-0.44856690672614097,1.0,0.0,0.0,0.0,1.0,0.0,0.0,0.0,1.0,-0.0003127270611003041,0.00040525646181777125,0.00031923828646540636,1.2184696791468346e-07,0.0,0.0,0.0,1.2184696791468346e-07,0.0,0.0,0.0,1.2184696791468346e-07,-0.45050138235092163,0.14807477593422055,9.804877281188965,8.999999999999999e-08,0.0,0.0,0.0,8.999999999999999e-08,0.0,0.0,0.0,8.999999999999999e-08
1719006630.9500473,37951,1719006630,941609152,base_link,0.017016090218097687,-0.01638148347370772,-0.8934367340477547,-0.44856756000229286,1.0,0.0,0.0,0.0,1.0,0.0,0.0,0.0,1.0,-0.000291918171569705,0.0004180961987003684,-0.00017610017675906425,1.2184696791468346e-07,0.0,0.0,0.0,1.2184696791468346e-07,0.0,0.0,0.0,1.2184696791468346e-07,-0.4461391866207123,0.13693277537822843,9.795565605163574,8.999999999999999e-08,0.0,0.0,0.0,8.999999999999999e-08,0.0,0.0,0.0,8.999999999999999e-08
1719006630.9541883,37952,1719006630,946609152,base_link,0.017017416691372893,-0.01638213790231253,-0.8934366919009061,-0.4485677707365354,1.0,0.0,0.0,0.0,1.0,0.0,0.0,0.0,1.0,6.917852442711592e-05,0.0005136457621119916,-0.00017865825793705886,1.2184696791468346e-07,0.0,0.0,0.0,1.2184696791468346e-07,0.0,0.0,0.0,1.2184696791468346e-07,-0.44579699635505676,0.14777393639087796,9.79155445098877,8.999999999999999e-08,0.0,0.0,0.0,8.999999999999999e-08,0.0,0.0,0.0,8.999999999999999e-08
1719006630.96289,37953,1719006630,956608384,base_link,0.017019276112370696,-0.016384219211650494,-0.8934362493589968,-0.44856846615953594,1.0,0.0,0.0,0.0,1.0,0.0,0.0,0.0,1.0,0.00010435801232233644,0.0005141642177477479,-0.00021132270921953028,1.2184696791468346e-07,0.0,0.0,0.0,1.2184696791468346e-07,0.0,0.0,0.0,1.2184696791468346e-07,-0.437725305557251,0.14407429099083066,9.79848861694336,8.999999999999999e-08,0.0,0.0,0.0,8.999999999999999e-08,0.0,0.0,0.0,8.999999999999999e-08
1719006630.9657176,37954,1719006630,961608384,base_link,0.0170199778532825,-0.016383849377170714,-0.89343601755133,-0.44856895084829373,1.0,0.0,0.0,0.0,1.0,0.0,0.0,0.0,1.0,3.8144062273204327e-06,0.0003832253278233111,-0.00015956556308083242,1.2184696791468346e-07,0.0,0.0,0.0,1.2184696791468346e-07,0.0,0.0,0.0,1.2184696791468346e-07,-0.43089497089385986,0.11919125169515729,9.795011520385742,8.999999999999999e-08,0.0,0.0,0.0,8.999999999999999e-08,0.0,0.0,0.0,8.999999999999999e-08
1719006630.9709723,37955,1719006630,966608384,base_link,0.017019395041392937,-0.016383649838184796,-0.893434289530541,-0.44857236474302314,1.0,0.0,0.0,0.0,1.0,0.0,0.0,0.0,1.0,-3.291573375463486e-05,2.4154556740540906e-05,-0.0008469281019642949,1.2184696791468346e-07,0.0,0.0,0.0,1.2184696791468346e-07,0.0,0.0,0.0,1.2184696791468346e-07,-0.43294447660446167,0.1395619809627545,9.805323600769043,8.999999999999999e-08,0.0,0.0,0.0,8.999999999999999e-08,0.0,0.0,0.0,8.999999999999999e-08
1719006630.9783814,37956,1719006630,971608384,base_link,0.017018096144669002,-0.016383584230688187,-0.8934351746143597,-0.4485706367222342,1.0,0.0,0.0,0.0,1.0,0.0,0.0,0.0,1.0,-7.213803473860025e-05,-0.00031778123229742056,-0.0003201047948095947,1.2184696791468346e-07,0.0,0.0,0.0,1.2184696791468346e-07,0.0,0.0,0.0,1.2184696791468346e-07,-0.4327007532119751,0.1514480710029614,9.80018424987793,8.999999999999999e-08,0.0,0.0,0.0,8.999999999999999e-08,0.0,0.0,0.0,8.999999999999999e-08
1719006630.9833832,37957,1719006630,976608384,base_link,0.017019258496305107,-0.01638195562954043,-0.893435532862572,-0.4485699412992338,1.0,0.0,0.0,0.0,1.0,0.0,0.0,0.0,1.0,-0.0006183834047988057,-0.0001940982911037281,0.00012179976329207423,1.2184696791468346e-07,0.0,0.0,0.0,1.2184696791468346e-07,0.0,0.0,0.0,1.2184696791468346e-07,-0.43486449122428894,0.1256738007068646,9.80810260772705,8.999999999999999e-08,0.0,0.0,0.0,8.999999999999999e-08,0.0,0.0,0.0,8.999999999999999e-08
1719006630.9896555,37958,1719006630,981608384,base_link,0.017020236332001885,-0.016379684412429978,-0.8934357435968147,-0.4485695619775972,1.0,0.0,0.0,0.0,1.0,0.0,0.0,0.0,1.0,-0.0008648679940961301,-0.00012260042421985412,0.00036218255991116166,1.2184696791468346e-07,0.0,0.0,0.0,1.2184696791468346e-07,0.0,0.0,0.0,1.2184696791468346e-07,-0.43643373250961304,0.15322478115558744,9.788911819458008,8.999999999999999e-08,0.0,0.0,0.0,8.999999999999999e-08,0.0,0.0,0.0,8.999999999999999e-08
1719006630.9953487,37959,1719006630,991608384,base_link,0.01701696206928771,-0.016376362693352197,-0.8934366919009061,-0.44856793932392947,1.0,0.0,0.0,0.0,1.0,0.0,0.0,0.0,1.0,-0.000582411652430892,-0.0007006172672845423,0.0002656723954714836,1.2184696791468346e-07,0.0,0.0,0.0,1.2184696791468346e-07,0.0,0.0,0.0,1.2184696791468346e-07,-0.44529989361763,0.1372753381729138,9.794624328613281,8.999999999999999e-08,0.0,0.0,0.0,8.999999999999999e-08,0.0,0.0,0.0,8.999999999999999e-08
1719006631.0014071,37960,1719006630,996608384,base_link,0.01701633044278649,-0.016377974234081296,-0.8934368183414517,-0.44856772858968696,1.0,0.0,0.0,0.0,1.0,0.0,0.0,0.0,1.0,0.00016407138900831342,-0.000438111659605056,0.00028108083643019205,1.2184696791468346e-07,0.0,0.0,0.0,1.2184696791468346e-07,0.0,0.0,0.0,1.2184696791468346e-07,-0.43862462043762207,0.13589338958263517,9.804346084594727,8.999999999999999e-08,0.0,0.0,0.0,8.999999999999999e-08,0.0,0.0,0.0,8.999999999999999e-08
1719006631.0086834,37961,1719006631,1608384,base_link,0.01701487250756388,-0.01637657145196123,-0.8934367761946032,-0.4485676864428384,1.0,0.0,0.0,0.0,1.0,0.0,0.0,0.0,1.0,0.00016112421872094274,-0.0004923900123685598,3.2451178412884535e-05,1.2184696791468346e-07,0.0,0.0,0.0,1.2184696791468346e-07,0.0,0.0,0.0,1.2184696791468346e-07,-0.4424552917480469,0.13253627717495084,9.800074577331543,8.999999999999999e-08,0.0,0.0,0.0,8.999999999999999e-08,0.0,0.0,0.0,8.999999999999999e-08
1719006631.0111406,37962,1719006631,6608384,base_link,0.017014326059678866,-0.01637715477833869,-0.8934365865337849,-0.4485682975721419,1.0,0.0,0.0,0.0,1.0,0.0,0.0,0.0,1.0,0.0002091453061439097,-0.0003833117661997676,-0.00010851951083168383,1.2184696791468346e-07,0.0,0.0,0.0,1.2184696791468346e-07,0.0,0.0,0.0,1.2184696791468346e-07,-0.44263118505477905,0.14244121313095212,9.797382354736328,8.999999999999999e-08,0.0,0.0,0.0,8.999999999999999e-08,0.0,0.0,0.0,8.999999999999999e-08
1719006631.0173783,37963,1719006631,11608384,base_link,0.017013365407877845,-0.016379395640663225,-0.8934362493589968,-0.44856871904062695,1.0,0.0,0.0,0.0,1.0,0.0,0.0,0.0,1.0,0.00048733915900811553,-0.00016317231347784403,-0.00021242306684143839,1.2184696791468346e-07,0.0,0.0,0.0,1.2184696791468346e-07,0.0,0.0,0.0,1.2184696791468346e-07,-0.44881632924079895,0.12561848759651303,9.796712875366211,8.999999999999999e-08,0.0,0.0,0.0,8.999999999999999e-08,0.0,0.0,0.0,8.999999999999999e-08
1719006631.0223386,37964,1719006631,16608384,base_link,0.017012443075135386,-0.01637925376548079,-0.8934365654603607,-0.4485683186455661,1.0,0.0,0.0,0.0,1.0,0.0,0.0,0.0,1.0,0.0003766021109186113,-0.00018650590209290385,-7.673742948099968e-05,1.2184696791468346e-07,0.0,0.0,0.0,1.2184696791468346e-07,0.0,0.0,0.0,1.2184696791468346e-07,-0.4312995374202728,0.13284596800804258,9.803178787231445,8.999999999999999e-08,0.0,0.0,0.0,8.999999999999999e-08,0.0,0.0,0.0,8.999999999999999e-08
1719006631.0298905,37965,1719006631,21608384,base_link,0.01701244035863929,-0.016379554144094494,-0.8934365233135122,-0.4485681922050206,1.0,0.0,0.0,0.0,1.0,0.0,0.0,0.0,1.0,-0.0001447173417545855,-0.00020275978022255,0.00011512840865179899,1.2184696791468346e-07,0.0,0.0,0.0,1.2184696791468346e-07,0.0,0.0,0.0,1.2184696791468346e-07,-0.44287991523742676,0.1323138028383267,9.801791191101074,8.999999999999999e-08,0.0,0.0,0.0,8.999999999999999e-08,0.0,0.0,0.0,8.999999999999999e-08
1719006631.034532,37966,1719006631,31608384,base_link,0.017013310954478843,-0.016374690134358532,-0.893437176589664,-0.44856728604777757,1.0,0.0,0.0,0.0,1.0,0.0,0.0,0.0,1.0,-0.000814090424682945,-7.275077950907868e-05,0.00016816990682855248,1.2184696791468346e-07,0.0,0.0,0.0,1.2184696791468346e-07,0.0,0.0,0.0,1.2184696791468346e-07,-0.44279199838638306,0.13892211019992948,9.799488067626953,8.999999999999999e-08,0.0,0.0,0.0,8.999999999999999e-08,0.0,0.0,0.0,8.999999999999999e-08
1719006631.0416508,37967,1719006631,36608384,base_link,0.017012857423108,-0.01637732213096178,-0.8934368183414517,-0.448567897177081,1.0,0.0,0.0,0.0,1.0,0.0,0.0,0.0,1.0,-4.202610580250621e-05,-3.5336117434781045e-05,2.335233148187403e-06,1.2184696791468346e-07,0.0,0.0,0.0,1.2184696791468346e-07,0.0,0.0,0.0,1.2184696791468346e-07,-0.43760886788368225,0.16365496814251065,9.792399406433105,8.999999999999999e-08,0.0,0.0,0.0,8.999999999999999e-08,0.0,0.0,0.0,8.999999999999999e-08
1719006631.0503356,37968,1719006631,41608384,base_link,0.017012381316008244,-0.016378820299137925,-0.8934364811666636,-0.4485684872329601,1.0,0.0,0.0,0.0,1.0,0.0,0.0,0.0,1.0,0.0006346578593365848,-6.42234299448319e-05,-0.00018237406038679183,1.2184696791468346e-07,0.0,0.0,0.0,1.2184696791468346e-07,0.0,0.0,0.0,1.2184696791468346e-07,-0.4373288154602051,0.1414271742105496,9.782785415649414,8.999999999999999e-08,0.0,0.0,0.0,8.999999999999999e-08,0.0,0.0,0.0,8.999999999999999e-08
1719006631.0504959,37969,1719006631,46608384,base_link,0.017011638889393558,-0.01638020019683634,-0.8934372398099368,-0.4485669699464138,1.0,0.0,0.0,0.0,1.0,0.0,0.0,0.0,1.0,0.0006941950996406376,-2.535657404223458e-05,-6.938260048627853e-05,1.2184696791468346e-07,0.0,0.0,0.0,1.2184696791468346e-07,0.0,0.0,0.0,1.2184696791468346e-07,-0.4393128752708435,0.1441255509853375,9.79529094696045,8.999999999999999e-08,0.0,0.0,0.0,8.999999999999999e-08,0.0,0.0,0.0,8.999999999999999e-08
1719006631.0574741,37970,1719006631,51608384,base_link,0.017012886131532647,-0.016379996089197896,-0.8934378720126644,-0.4485654948067159,1.0,0.0,0.0,0.0,1.0,0.0,0.0,0.0,1.0,0.00018481636652722955,0.0001878026814665646,0.00044066517148166895,1.2184696791468346e-07,0.0,0.0,0.0,1.2184696791468346e-07,0.0,0.0,0.0,1.2184696791468346e-07,-0.4296862781047821,0.14055246114730954,9.793910026550293,8.999999999999999e-08,0.0,0.0,0.0,8.999999999999999e-08,0.0,0.0,0.0,8.999999999999999e-08
1719006631.0620043,37971,1719006631,56608896,base_link,0.01701101283994114,-0.016380712976633384,-0.8934385885090891,-0.448564188254412,1.0,0.0,0.0,0.0,1.0,0.0,0.0,0.0,1.0,0.00023066176800057292,-0.00022529947455041105,0.0004758912837132812,1.2184696791468346e-07,0.0,0.0,0.0,1.2184696791468346e-07,0.0,0.0,0.0,1.2184696791468346e-07,-0.43618106842041016,0.15764746069908261,9.799948692321777,8.999999999999999e-08,0.0,0.0,0.0,8.999999999999999e-08,0.0,0.0,0.0,8.999999999999999e-08
1719006631.0698874,37972,1719006631,61608896,base_link,0.017008548566392268,-0.016379573694634574,-0.8934383777748466,-0.44856473616344267,1.0,0.0,0.0,0.0,1.0,0.0,0.0,0.0,1.0,-0.00010907556861639023,-0.00047216148232109845,0.00010124366963282233,1.2184696791468346e-07,0.0,0.0,0.0,1.2184696791468346e-07,0.0,0.0,0.0,1.2184696791468346e-07,-0.4391638934612274,0.13051605224609494,9.799126625061035,8.999999999999999e-08,0.0,0.0,0.0,8.999999999999999e-08,0.0,0.0,0.0,8.999999999999999e-08
1719006631.0773737,37973,1719006631,71608896,base_link,0.01701233451818915,-0.016379046221063197,-0.8934379563063615,-0.44856549480671587,1.0,0.0,0.0,0.0,1.0,0.0,0.0,0.0,1.0,-0.00037423870526254177,7.637139788130296e-05,-0.00019971473375335336,1.2184696791468346e-07,0.0,0.0,0.0,1.2184696791468346e-07,0.0,0.0,0.0,1.2184696791468346e-07,-0.4559650421142578,0.14383907616138578,9.792564392089844,8.999999999999999e-08,0.0,0.0,0.0,8.999999999999999e-08,0.0,0.0,0.0,8.999999999999999e-08
1719006631.081357,37974,1719006631,76608896,base_link,0.017011079229459353,-0.016379669307065328,-0.8934386728027861,-0.448564103960715,1.0,0.0,0.0,0.0,1.0,0.0,0.0,0.0,1.0,-7.96600361354649e-05,0.0002479831164237112,7.521809311583635e-05,1.2184696791468346e-07,0.0,0.0,0.0,1.2184696791468346e-07,0.0,0.0,0.0,1.2184696791468346e-07,-0.4395869970321655,0.14638693630695462,9.786224365234375,8.999999999999999e-08,0.0,0.0,0.0,8.999999999999999e-08,0.0,0.0,0.0,8.999999999999999e-08
1719006631.0899165,37975,1719006631,81608896,base_link,0.017013161979363426,-0.016378969500628015,-0.8934375137644521,-0.4485662745234133,1.0,0.0,0.0,0.0,1.0,0.0,0.0,0.0,1.0,-8.186197374016047e-05,0.00033935869578272104,-0.00020351109560579067,1.2184696791468346e-07,0.0,0.0,0.0,1.2184696791468346e-07,0.0,0.0,0.0,1.2184696791468346e-07,-0.4411761462688446,0.14309057593345761,9.79645824432373,8.999999999999999e-08,0.0,0.0,0.0,8.999999999999999e-08,0.0,0.0,0.0,8.999999999999999e-08
1719006631.0903592,37976,1719006631,86608896,base_link,0.017014636625152926,-0.01638055840388965,-0.8934375348378765,-0.44856633774368615,1.0,0.0,0.0,0.0,1.0,0.0,0.0,0.0,1.0,-3.696349449455738e-05,0.0004919255734421313,-0.0002577122650109232,1.2184696791468346e-07,0.0,0.0,0.0,1.2184696791468346e-07,0.0,0.0,0.0,1.2184696791468346e-07,-0.4375669062137604,0.1311432272195828,9.806604385375977,8.999999999999999e-08,0.0,0.0,0.0,8.999999999999999e-08,0.0,0.0,0.0,8.999999999999999e-08
1719006631.0969756,37977,1719006631,91608896,base_link,0.01701376401252082,-0.016383127427174324,-0.8934380195266343,-0.44856526299904903,1.0,0.0,0.0,0.0,1.0,0.0,0.0,0.0,1.0,0.0003272639005444944,0.0004025534726679325,8.838123176246876e-05,1.2184696791468346e-07,0.0,0.0,0.0,1.2184696791468346e-07,0.0,0.0,0.0,1.2184696791468346e-07,-0.4554395079612732,0.12928222119808316,9.811760902404785,8.999999999999999e-08,0.0,0.0,0.0,8.999999999999999e-08,0.0,0.0,0.0,8.999999999999999e-08
1719006631.1024246,37978,1719006631,96608896,base_link,0.017015295889943965,-0.016383036445134645,-0.89343799845321,-0.44856519977877635,1.0,0.0,0.0,0.0,1.0,0.0,0.0,0.0,1.0,0.00010244018631055951,0.00034236477222293615,-3.857869887724523e-05,1.2184696791468346e-07,0.0,0.0,0.0,1.2184696791468346e-07,0.0,0.0,0.0,1.2184696791468346e-07,-0.440470814704895,0.13618116080761075,9.793330192565918,8.999999999999999e-08,0.0,0.0,0.0,8.999999999999999e-08,0.0,0.0,0.0,8.999999999999999e-08
1719006631.1094275,37979,1719006631,101608896,base_link,0.01701496779072238,-0.016383662206473838,-0.8934365865337849,-0.44856804469105077,1.0,0.0,0.0,0.0,1.0,0.0,0.0,0.0,1.0,0.00013570039300248027,-4.363428161013925e-06,-0.00043683277908712626,1.2184696791468346e-07,0.0,0.0,0.0,1.2184696791468346e-07,0.0,0.0,0.0,1.2184696791468346e-07,-0.44377222657203674,0.14192931354045987,9.799786567687988,8.999999999999999e-08,0.0,0.0,0.0,8.999999999999999e-08,0.0,0.0,0.0,8.999999999999999e-08
1719006631.1176474,37980,1719006631,111608896,base_link,0.01701027123650709,-0.016382650496893934,-0.8934374505441793,-0.4485663377436861,1.0,0.0,0.0,0.0,1.0,0.0,0.0,0.0,1.0,0.00019743450684472919,-0.0006787331658415496,-9.212730219587676e-05,1.2184696791468346e-07,0.0,0.0,0.0,1.2184696791468346e-07,0.0,0.0,0.0,1.2184696791468346e-07,-0.43410634994506836,0.1184355691075337,9.796792030334473,8.999999999999999e-08,0.0,0.0,0.0,8.999999999999999e-08,0.0,0.0,0.0,8.999999999999999e-08
1719006631.1222055,37981,1719006631,116608896,base_link,0.017010721145883135,-0.016384563445212528,-0.8934377877189674,-0.44856583198150396,1.0,0.0,0.0,0.0,1.0,0.0,0.0,0.0,1.0,0.0004184471326880157,-0.0003475510748103261,0.00016823317855596548,1.2184696791468346e-07,0.0,0.0,0.0,1.2184696791468346e-07,0.0,0.0,0.0,1.2184696791468346e-07,-0.4437124729156494,0.13875451683998227,9.802143096923828,8.999999999999999e-08,0.0,0.0,0.0,8.999999999999999e-08,0.0,0.0,0.0,8.999999999999999e-08
1719006631.1298535,37982,1719006631,121608896,base_link,0.017010855344906154,-0.016382998887518173,-0.8934373030302096,-0.44856656955135293,1.0,0.0,0.0,0.0,1.0,0.0,0.0,0.0,1.0,-0.00022417661966755986,-0.00022027501836419106,6.460706936195495e-05,1.2184696791468346e-07,0.0,0.0,0.0,1.2184696791468346e-07,0.0,0.0,0.0,1.2184696791468346e-07,-0.4252036213874817,0.14186085760593534,9.786811828613281,8.999999999999999e-08,0.0,0.0,0.0,8.999999999999999e-08,0.0,0.0,0.0,8.999999999999999e-08
1719006631.1306856,37983,1719006631,126608896,base_link,0.017010613412117535,-0.016381323138699545,-0.8934375348378765,-0.44856633774368615,1.0,0.0,0.0,0.0,1.0,0.0,0.0,0.0,1.0,-0.0004933823365718126,-0.00022462394554167986,-1.0193267371505472e-05,1.2184696791468346e-07,0.0,0.0,0.0,1.2184696791468346e-07,0.0,0.0,0.0,1.2184696791468346e-07,-0.45621535181999207,0.14397679269313932,9.79557991027832,8.999999999999999e-08,0.0,0.0,0.0,8.999999999999999e-08,0.0,0.0,0.0,8.999999999999999e-08
1719006631.1376073,37984,1719006631,131608896,base_link,0.01701011421480097,-0.016380679102750255,-0.8934386306559376,-0.4485641461075635,1.0,0.0,0.0,0.0,1.0,0.0,0.0,0.0,1.0,-0.0003491649404168129,-0.0003502291219774633,0.00036728545092046266,1.2184696791468346e-07,0.0,0.0,0.0,1.2184696791468346e-07,0.0,0.0,0.0,1.2184696791468346e-07,-0.4496382176876068,0.14499510824680448,9.793724060058594,8.999999999999999e-08,0.0,0.0,0.0,8.999999999999999e-08,0.0,0.0,0.0,8.999999999999999e-08
1719006631.1422405,37985,1719006631,136608896,base_link,0.01700714076287033,-0.016380876131035234,-0.8934378930860887,-0.44856572661438265,1.0,0.0,0.0,0.0,1.0,0.0,0.0,0.0,1.0,0.00010924151865765452,-0.0006486980710178614,-4.9425463657826104e-05,1.2184696791468346e-07,0.0,0.0,0.0,1.2184696791468346e-07,0.0,0.0,0.0,1.2184696791468346e-07,-0.43727371096611023,0.14406716823578,9.795295715332031,8.999999999999999e-08,0.0,0.0,0.0,8.999999999999999e-08,0.0,0.0,0.0,8.999999999999999e-08
1719006631.1479344,37986,1719006631,141608896,base_link,0.01700546758649119,-0.016379628003976965,-0.8934374083973309,-0.4485668013590198,1.0,0.0,0.0,0.0,1.0,0.0,0.0,0.0,1.0,0.000171769002918154,-0.0005891897599212825,-0.000441516691353172,1.2184696791468346e-07,0.0,0.0,0.0,1.2184696791468346e-07,0.0,0.0,0.0,1.2184696791468346e-07,-0.44044601917266846,0.1414947062730801,9.807552337646484,8.999999999999999e-08,0.0,0.0,0.0,8.999999999999999e-08,0.0,0.0,0.0,8.999999999999999e-08
1719006631.1548438,37987,1719006631,146608896,base_link,0.01700524100602141,-0.016380062684511264,-0.8934369869288458,-0.4485676442959899,1.0,0.0,0.0,0.0,1.0,0.0,0.0,0.0,1.0,-0.00010445452062413096,-0.00023545307340100416,-0.0005696153384633362,1.2184696791468346e-07,0.0,0.0,0.0,1.2184696791468346e-07,0.0,0.0,0.0,1.2184696791468346e-07,-0.4284508526325226,0.1341227889060986,9.786481857299805,8.999999999999999e-08,0.0,0.0,0.0,8.999999999999999e-08,0.0,0.0,0.0,8.999999999999999e-08
1719006631.1600251,37988,1719006631,156608640,base_link,0.017006205259237708,-0.016381192602830354,-0.8934365865337849,-0.44856846615953594,1.0,0.0,0.0,0.0,1.0,0.0,0.0,0.0,1.0,3.065052442252636e-05,0.00010852050036191936,-0.0003149191616103053,1.2184696791468346e-07,0.0,0.0,0.0,1.2184696791468346e-07,0.0,0.0,0.0,1.2184696791468346e-07,-0.4532753527164459,0.15100589394569516,9.793828964233398,8.999999999999999e-08,0.0,0.0,0.0,8.999999999999999e-08,0.0,0.0,0.0,8.999999999999999e-08
1719006631.1682339,37989,1719006631,161608640,base_link,0.01700604383351519,-0.016381364565265004,-0.8934373662504823,-0.44856692779956525,1.0,0.0,0.0,0.0,1.0,0.0,0.0,0.0,1.0,0.00010510656284168363,0.0001340362505288795,0.00021663605002686379,1.2184696791468346e-07,0.0,0.0,0.0,1.2184696791468346e-07,0.0,0.0,0.0,1.2184696791468346e-07,-0.44098368287086487,0.15409578382969022,9.79013442993164,8.999999999999999e-08,0.0,0.0,0.0,8.999999999999999e-08,0.0,0.0,0.0,8.999999999999999e-08
1719006631.1726148,37990,1719006631,166608640,base_link,0.017005722710749484,-0.01638155661330714,-0.8934372187365126,-0.4485671596072321,1.0,0.0,0.0,0.0,1.0,0.0,0.0,0.0,1.0,0.00027787842554971576,-0.0001221404527314007,0.00019888125825673344,1.2184696791468346e-07,0.0,0.0,0.0,1.2184696791468346e-07,0.0,0.0,0.0,1.2184696791468346e-07,-0.4241100549697876,0.14714735746383786,9.794282913208008,8.999999999999999e-08,0.0,0.0,0.0,8.999999999999999e-08,0.0,0.0,0.0,8.999999999999999e-08
1719006631.1784282,37991,1719006631,171608640,base_link,0.017003411960389035,-0.016382795253208595,-0.8934374083973309,-0.44856688565271674,1.0,0.0,0.0,0.0,1.0,0.0,0.0,0.0,1.0,0.0003452124656178057,-0.0001295511901844293,-4.696892574429511e-05,1.2184696791468346e-07,0.0,0.0,0.0,1.2184696791468346e-07,0.0,0.0,0.0,1.2184696791468346e-07,-0.4422447085380554,0.14479711651802182,9.804027557373047,8.999999999999999e-08,0.0,0.0,0.0,8.999999999999999e-08,0.0,0.0,0.0,8.999999999999999e-08
1719006631.1820033,37992,1719006631,176608640,base_link,0.017006023603851086,-0.016382667639630658,-0.8934364600932394,-0.44856842401268743,1.0,0.0,0.0,0.0,1.0,0.0,0.0,0.0,1.0,9.295536438003182e-05,0.0001248394983122125,-0.00022843611077405515,1.2184696791468346e-07,0.0,0.0,0.0,1.2184696791468346e-07,0.0,0.0,0.0,1.2184696791468346e-07,-0.44218704104423523,0.13888534903526426,9.794295310974121,8.999999999999999e-08,0.0,0.0,0.0,8.999999999999999e-08,0.0,0.0,0.0,8.999999999999999e-08
1719006631.1883545,37993,1719006631,181608640,base_link,0.017006590281400204,-0.016382438136869622,-0.8934368604883003,-0.4485678550302325,1.0,0.0,0.0,0.0,1.0,0.0,0.0,0.0,1.0,-0.0003134760772809386,0.00031235726783052087,-0.00013588913134299221,1.2184696791468346e-07,0.0,0.0,0.0,1.2184696791468346e-07,0.0,0.0,0.0,1.2184696791468346e-07,-0.42985472083091736,0.12930694222450376,9.804986000061035,8.999999999999999e-08,0.0,0.0,0.0,8.999999999999999e-08,0.0,0.0,0.0,8.999999999999999e-08
1719006631.1940236,37994,1719006631,186608640,base_link,0.017008278624882543,-0.01638160590124766,-0.8934369026351487,-0.44856756000229286,1.0,0.0,0.0,0.0,1.0,0.0,0.0,0.0,1.0,-0.000410309323342517,0.000639759236946702,7.252377690747372e-05,1.2184696791468346e-07,0.0,0.0,0.0,1.2184696791468346e-07,0.0,0.0,0.0,1.2184696791468346e-07,-0.452494740486145,0.13450144231319547,9.805411338806152,8.999999999999999e-08,0.0,0.0,0.0,8.999999999999999e-08,0.0,0.0,0.0,8.999999999999999e-08
1719006631.1990657,37995,1719006631,191608640,base_link,0.01701107239706008,-0.01638201265537892,-0.89343700800227,-0.44856728604777757,1.0,0.0,0.0,0.0,1.0,0.0,0.0,0.0,1.0,-0.0003379948902875185,0.0004071285075042397,0.00012505287304520602,1.2184696791468346e-07,0.0,0.0,0.0,1.2184696791468346e-07,0.0,0.0,0.0,1.2184696791468346e-07,-0.44746291637420654,0.13591700792312741,9.791523933410645,8.999999999999999e-08,0.0,0.0,0.0,8.999999999999999e-08,0.0,0.0,0.0,8.999999999999999e-08
1719006631.2052073,37996,1719006631,201608640,base_link,0.017011647635687806,-0.01638044433163316,-0.8934381459671799,-0.44856505226480653,1.0,0.0,0.0,0.0,1.0,0.0,0.0,0.0,1.0,-0.00041457777842879295,0.00016401207540184265,0.00047503469977527857,1.2184696791468346e-07,0.0,0.0,0.0,1.2184696791468346e-07,0.0,0.0,0.0,1.2184696791468346e-07,-0.43793413043022156,0.13206571340561032,9.783183097839355,8.999999999999999e-08,0.0,0.0,0.0,8.999999999999999e-08,0.0,0.0,0.0,8.999999999999999e-08
1719006631.2123616,37997,1719006631,206608640,base_link,0.01701197180422186,-0.01638038884925836,-0.8934375137644521,-0.4485662745234133,1.0,0.0,0.0,0.0,1.0,0.0,0.0,0.0,1.0,-0.0003511704271659255,0.00018945381452795118,3.98833071812985e-06,1.2184696791468346e-07,0.0,0.0,0.0,1.2184696791468346e-07,0.0,0.0,0.0,1.2184696791468346e-07,-0.45368555188179016,0.14713674783706784,9.805191040039062,8.999999999999999e-08,0.0,0.0,0.0,8.999999999999999e-08,0.0,0.0,0.0,8.999999999999999e-08
1719006631.2181933,37998,1719006631,211608640,base_link,0.017011253949549127,-0.01637827496254677,-0.8934367340477547,-0.44856798147077803,1.0,0.0,0.0,0.0,1.0,0.0,0.0,0.0,1.0,-0.0005520419217646122,-0.0001950548903550953,-0.00021223671501502392,1.2184696791468346e-07,0.0,0.0,0.0,1.2184696791468346e-07,0.0,0.0,0.0,1.2184696791468346e-07,-0.4436004161834717,0.12186849117279172,9.800288200378418,8.999999999999999e-08,0.0,0.0,0.0,8.999999999999999e-08,0.0,0.0,0.0,8.999999999999999e-08
1719006631.2231715,37999,1719006631,216608640,base_link,0.01701143076874952,-0.016377139302542754,-0.8934369658554215,-0.4485675810757172,1.0,0.0,0.0,0.0,1.0,0.0,0.0,0.0,1.0,-0.0004309054056648165,-0.00044150315807200974,-0.000295914796879515,1.2184696791468346e-07,0.0,0.0,0.0,1.2184696791468346e-07,0.0,0.0,0.0,1.2184696791468346e-07,-0.4369211792945862,0.13594110310077787,9.791784286499023,8.999999999999999e-08,0.0,0.0,0.0,8.999999999999999e-08,0.0,0.0,0.0,8.999999999999999e-08
1719006631.2299328,38000,1719006631,226608640,base_link,0.017008214828383335,-0.01637593509217136,-0.8934378930860887,-0.4485658952017767,1.0,0.0,0.0,0.0,1.0,0.0,0.0,0.0,1.0,-9.350973414257169e-05,-0.0006697825156152248,0.00014213524991646417,1.2184696791468346e-07,0.0,0.0,0.0,1.2184696791468346e-07,0.0,0.0,0.0,1.2184696791468346e-07,-0.4525357782840729,0.12468002736568572,9.803034782409668,8.999999999999999e-08,0.0,0.0,0.0,8.999999999999999e-08,0.0,0.0,0.0,8.999999999999999e-08
1719006631.2352362,38001,1719006631,231608640,base_link,0.017009046817051107,-0.01637422328804092,-0.8934376402049977,-0.4485664009639589,1.0,0.0,0.0,0.0,1.0,0.0,0.0,0.0,1.0,-0.00031854119151830673,-0.0003511852992232889,0.00021860253764316445,1.2184696791468346e-07,0.0,0.0,0.0,1.2184696791468346e-07,0.0,0.0,0.0,1.2184696791468346e-07,-0.44537681341171265,0.13956137001514554,9.781986236572266,8.999999999999999e-08,0.0,0.0,0.0,8.999999999999999e-08,0.0,0.0,0.0,8.999999999999999e-08
1719006631.2420902,38002,1719006631,236608640,base_link,0.017008588840504837,-0.016375521567379377,-0.8934385252888164,-0.44856458864947285,1.0,0.0,0.0,0.0,1.0,0.0,0.0,0.0,1.0,1.124618574976921e-05,-6.757067603757601e-05,0.00036574265686795115,1.2184696791468346e-07,0.0,0.0,0.0,1.2184696791468346e-07,0.0,0.0,0.0,1.2184696791468346e-07,-0.4345713257789612,0.14079026877880216,9.780577659606934,8.999999999999999e-08,0.0,0.0,0.0,8.999999999999999e-08,0.0,0.0,0.0,8.999999999999999e-08
1719006631.248835,38003,1719006631,241608640,base_link,0.01700858174057186,-0.016376076576342997,-0.8934391785649682,-0.4485632610237448,1.0,0.0,0.0,0.0,1.0,0.0,0.0,0.0,1.0,-1.2365810107439756e-05,1.992964098462841e-05,0.0004910321440547705,1.2184696791468346e-07,0.0,0.0,0.0,1.2184696791468346e-07,0.0,0.0,0.0,1.2184696791468346e-07,-0.44047054648399353,0.1513141244649899,9.78940200805664,8.999999999999999e-08,0.0,0.0,0.0,8.999999999999999e-08,0.0,0.0,0.0,8.999999999999999e-08
1719006631.2533767,38004,1719006631,246608640,base_link,0.017007783399412543,-0.016375418217050654,-0.8934390942712713,-0.4485634296111389,1.0,0.0,0.0,0.0,1.0,0.0,0.0,0.0,1.0,-0.00020779925398528576,-0.00013829552335664627,0.00031068449607118964,1.2184696791468346e-07,0.0,0.0,0.0,1.2184696791468346e-07,0.0,0.0,0.0,1.2184696791468346e-07,-0.4349413216114044,0.15164241194725156,9.789441108703613,8.999999999999999e-08,0.0,0.0,0.0,8.999999999999999e-08,0.0,0.0,0.0,8.999999999999999e-08
1719006631.2591472,38005,1719006631,251608640,base_link,0.017007682559784756,-0.016374201967662472,-0.8934392628586653,-0.4485633453174418,1.0,0.0,0.0,0.0,1.0,0.0,0.0,0.0,1.0,9.784178109839559e-05,-0.00027642387431114907,0.00034945446532219654,1.2184696791468346e-07,0.0,0.0,0.0,1.2184696791468346e-07,0.0,0.0,0.0,1.2184696791468346e-07,-0.43935301899909973,0.1338510513305676,9.802885055541992,8.999999999999999e-08,0.0,0.0,0.0,8.999999999999999e-08,0.0,0.0,0.0,8.999999999999999e-08
1719006631.2694008,38006,1719006631,261608640,base_link,0.017005026423409387,-0.016374663833737244,-0.8934392207118168,-0.44856330317059334,1.0,0.0,0.0,0.0,1.0,0.0,0.0,0.0,1.0,9.325071005150676e-05,-0.00037199599319137633,3.487954381853347e-05,1.2184696791468346e-07,0.0,0.0,0.0,1.2184696791468346e-07,0.0,0.0,0.0,1.2184696791468346e-07,-0.4366840124130249,0.12872563302517057,9.791548728942871,8.999999999999999e-08,0.0,0.0,0.0,8.999999999999999e-08,0.0,0.0,0.0,8.999999999999999e-08
1719006631.2712834,38007,1719006631,266608640,base_link,0.017003609503161914,-0.0163734808202672,-0.8934382934811496,-0.44856549480671587,1.0,0.0,0.0,0.0,1.0,0.0,0.0,0.0,1.0,-0.0001399404718540609,-0.0004507212725002319,-0.0005658837617374956,1.2184696791468346e-07,0.0,0.0,0.0,1.2184696791468346e-07,0.0,0.0,0.0,1.2184696791468346e-07,-0.43892717361450195,0.12474918365478636,9.803068161010742,8.999999999999999e-08,0.0,0.0,0.0,8.999999999999999e-08,0.0,0.0,0.0,8.999999999999999e-08
1719006631.278709,38008,1719006631,271608640,base_link,0.017003853432163575,-0.01637303142537905,-0.8934375769847249,-0.44856663277162573,1.0,0.0,0.0,0.0,1.0,0.0,0.0,0.0,1.0,-0.0002610172959975898,-0.00026340398471802484,-0.0006692156312055886,1.2184696791468346e-07,0.0,0.0,0.0,1.2184696791468346e-07,0.0,0.0,0.0,1.2184696791468346e-07,-0.4430798590183258,0.14758431911468625,9.793689727783203,8.999999999999999e-08,0.0,0.0,0.0,8.999999999999999e-08,0.0,0.0,0.0,8.999999999999999e-08
1719006631.2834053,38009,1719006631,276608640,base_link,0.01700664831563497,-0.01637304984404576,-0.893436923708573,-0.4485678761036567,1.0,0.0,0.0,0.0,1.0,0.0,0.0,0.0,1.0,-0.00031964504159986973,0.0003047708887606858,-0.0007385606877505779,1.2184696791468346e-07,0.0,0.0,0.0,1.2184696791468346e-07,0.0,0.0,0.0,1.2184696791468346e-07,-0.4302900433540344,0.13368774950504422,9.790851593017578,8.999999999999999e-08,0.0,0.0,0.0,8.999999999999999e-08,0.0,0.0,0.0,8.999999999999999e-08
1719006631.2893062,38010,1719006631,281608640,base_link,0.01700667655073075,-0.016373124341893225,-0.8934363757995424,-0.4485690140685666,1.0,0.0,0.0,0.0,1.0,0.0,0.0,0.0,1.0,-0.00019186310237273574,0.000496594700962305,-0.0006010793149471284,1.2184696791468346e-07,0.0,0.0,0.0,1.2184696791468346e-07,0.0,0.0,0.0,1.2184696791468346e-07,-0.44535449147224426,0.14194095134735227,9.793736457824707,8.999999999999999e-08,0.0,0.0,0.0,8.999999999999999e-08,0.0,0.0,0.0,8.999999999999999e-08
1719006631.2958562,38011,1719006631,291608640,base_link,0.01700887573953564,-0.016372039410395837,-0.8934342263102683,-0.4485732709002661,1.0,0.0,0.0,0.0,1.0,0.0,0.0,0.0,1.0,-0.00032528338488191366,0.00031022157054394473,-0.0008840324589982629,1.2184696791468346e-07,0.0,0.0,0.0,1.2184696791468346e-07,0.0,0.0,0.0,1.2184696791468346e-07,-0.4267422556877136,0.13573011755943418,9.789117813110352,8.999999999999999e-08,0.0,0.0,0.0,8.999999999999999e-08,0.0,0.0,0.0,8.999999999999999e-08
1719006631.3012927,38012,1719006631,296608640,base_link,0.01701187602715498,-0.01637034567508034,-0.8934351956877841,-0.44857128999838614,1.0,0.0,0.0,0.0,1.0,0.0,0.0,0.0,1.0,-0.0007752975798211992,0.00037768343463540077,-0.0001919729402288795,1.2184696791468346e-07,0.0,0.0,0.0,1.2184696791468346e-07,0.0,0.0,0.0,1.2184696791468346e-07,-0.45173266530036926,0.10836412012577178,9.809901237487793,8.999999999999999e-08,0.0,0.0,0.0,8.999999999999999e-08,0.0,0.0,0.0,8.999999999999999e-08
1719006631.3085687,38013,1719006631,301608640,base_link,0.017013010287751915,-0.016371379343003683,-0.893435933257633,-0.44856996237265806,1.0,0.0,0.0,0.0,1.0,0.0,0.0,0.0,1.0,-0.0005906083388254046,0.0006794103537686169,0.00028570531867444504,1.2184696791468346e-07,0.0,0.0,0.0,1.2184696791468346e-07,0.0,0.0,0.0,1.2184696791468346e-07,-0.4460885226726532,0.13613274693489194,9.8016996383667,8.999999999999999e-08,0.0,0.0,0.0,8.999999999999999e-08,0.0,0.0,0.0,8.999999999999999e-08
1719006631.313371,38014,1719006631,306608640,base_link,0.017015341885161944,-0.016370659862549194,-0.8934350060269657,-0.4485714796592044,1.0,0.0,0.0,0.0,1.0,0.0,0.0,0.0,1.0,-0.0005799834616482258,0.00044567379518412054,-2.018909435719257e-05,1.2184696791468346e-07,0.0,0.0,0.0,1.2184696791468346e-07,0.0,0.0,0.0,1.2184696791468346e-07,-0.4558306634426117,0.13768807053566098,9.81482982635498,8.999999999999999e-08,0.0,0.0,0.0,8.999999999999999e-08,0.0,0.0,0.0,8.999999999999999e-08
1719006631.3191905,38015,1719006631,311608640,base_link,0.017015600693153582,-0.016369281528893987,-0.893435532862572,-0.4485704470614159,1.0,0.0,0.0,0.0,1.0,0.0,0.0,0.0,1.0,-0.000437942857388407,9.21618411666714e-05,0.0002784003154374659,1.2184696791468346e-07,0.0,0.0,0.0,1.2184696791468346e-07,0.0,0.0,0.0,1.2184696791468346e-07,-0.4533573389053345,0.1248309388756764,9.788206100463867,8.999999999999999e-08,0.0,0.0,0.0,8.999999999999999e-08,0.0,0.0,0.0,8.999999999999999e-08
1719006631.3264768,38016,1719006631,321608640,base_link,0.01701652518674521,-0.01636844396317741,-0.8934349217332688,-0.44857181683399244,1.0,0.0,0.0,0.0,1.0,0.0,0.0,0.0,1.0,-0.00034058181336149573,5.003379919799042e-05,-0.00019414580310694873,1.2184696791468346e-07,0.0,0.0,0.0,1.2184696791468346e-07,0.0,0.0,0.0,1.2184696791468346e-07,-0.43212273716926575,0.12934572994709134,9.784392356872559,8.999999999999999e-08,0.0,0.0,0.0,8.999999999999999e-08,0.0,0.0,0.0,8.999999999999999e-08
1719006631.3315165,38017,1719006631,326608640,base_link,0.017015864316751932,-0.016369834500485535,-0.8934349638801172,-0.44857177468714393,1.0,0.0,0.0,0.0,1.0,0.0,0.0,0.0,1.0,-6.215722532942891e-05,0.00012446873006410894,-0.00031277001835405827,1.2184696791468346e-07,0.0,0.0,0.0,1.2184696791468346e-07,0.0,0.0,0.0,1.2184696791468346e-07,-0.44254204630851746,0.12793794274330259,9.800553321838379,8.999999999999999e-08,0.0,0.0,0.0,8.999999999999999e-08,0.0,0.0,0.0,8.999999999999999e-08
1719006631.338835,38018,1719006631,331608640,base_link,0.017015977504089244,-0.016366486542525014,-0.8934353010549053,-0.4485710160438708,1.0,0.0,0.0,0.0,1.0,0.0,0.0,0.0,1.0,-0.00035098171792924404,-0.00027437484823167324,1.3607088476419483e-05,1.2184696791468346e-07,0.0,0.0,0.0,1.2184696791468346e-07,0.0,0.0,0.0,1.2184696791468346e-07,-0.4391941428184509,0.13730236887931943,9.794217109680176,8.999999999999999e-08,0.0,0.0,0.0,8.999999999999999e-08,0.0,0.0,0.0,8.999999999999999e-08
1719006631.3435524,38019,1719006631,336608640,base_link,0.017014104541769992,-0.016365675277429725,-0.8934347109990262,-0.4485723647430231,1.0,0.0,0.0,0.0,1.0,0.0,0.0,0.0,1.0,-0.00015181576600298285,-0.0002737901813816279,-9.084813063964245e-05,1.2184696791468346e-07,0.0,0.0,0.0,1.2184696791468346e-07,0.0,0.0,0.0,1.2184696791468346e-07,-0.4344625473022461,0.14054583013057828,9.796034812927246,8.999999999999999e-08,0.0,0.0,0.0,8.999999999999999e-08,0.0,0.0,0.0,8.999999999999999e-08
1719006631.3496695,38020,1719006631,341608640,base_link,0.017016328672948125,-0.01636801881095896,-0.8934346056319049,-0.44857247011014434,1.0,0.0,0.0,0.0,1.0,0.0,0.0,0.0,1.0,-5.1269540563225746e-05,0.0002099338453263044,-0.00027046346804127097,1.2184696791468346e-07,0.0,0.0,0.0,1.2184696791468346e-07,0.0,0.0,0.0,1.2184696791468346e-07,-0.44379401206970215,0.14847557246685147,9.798415184020996,8.999999999999999e-08,0.0,0.0,0.0,8.999999999999999e-08,0.0,0.0,0.0,8.999999999999999e-08
1719006631.3557305,38021,1719006631,351608640,base_link,0.01701485915145808,-0.016367396795091655,-0.8934338891354802,-0.44857402954353925,1.0,0.0,0.0,0.0,1.0,0.0,0.0,0.0,1.0,-3.213901072740555e-05,-3.7522120692301596e-05,-0.0004265877651050687,1.2184696791468346e-07,0.0,0.0,0.0,1.2184696791468346e-07,0.0,0.0,0.0,1.2184696791468346e-07,-0.42270806431770325,0.14819051325321317,9.78966236114502,8.999999999999999e-08,0.0,0.0,0.0,8.999999999999999e-08,0.0,0.0,0.0,8.999999999999999e-08
1719006631.362268,38022,1719006631,356609152,base_link,0.017016764423617253,-0.016366603146061958,-0.8934338891354803,-0.4485738609561452,1.0,0.0,0.0,0.0,1.0,0.0,0.0,0.0,1.0,-0.00010494713205844164,0.00011172828817507251,-0.00012672843877226117,1.2184696791468346e-07,0.0,0.0,0.0,1.2184696791468346e-07,0.0,0.0,0.0,1.2184696791468346e-07,-0.43058207631111145,0.13882061839103818,9.795605659484863,8.999999999999999e-08,0.0,0.0,0.0,8.999999999999999e-08,0.0,0.0,0.0,8.999999999999999e-08
1719006631.3709693,38023,1719006631,361609152,base_link,0.017016950606497366,-0.016366498622700832,-0.8934340155760258,-0.44857356592820563,1.0,0.0,0.0,0.0,1.0,0.0,0.0,0.0,1.0,-0.00021195894805714488,0.00010526318510528651,-0.00017557560931891203,1.2184696791468346e-07,0.0,0.0,0.0,1.2184696791468346e-07,0.0,0.0,0.0,1.2184696791468346e-07,-0.440982460975647,0.136668384075166,9.795613288879395,8.999999999999999e-08,0.0,0.0,0.0,8.999999999999999e-08,0.0,0.0,0.0,8.999999999999999e-08
1719006631.3711565,38024,1719006631,366609152,base_link,0.017015993576691143,-0.016365464213914917,-0.8934330251250857,-0.448575652197207,1.0,0.0,0.0,0.0,1.0,0.0,0.0,0.0,1.0,-0.0002654096460901201,-4.346537025412549e-05,-0.0003572293499018997,1.2184696791468346e-07,0.0,0.0,0.0,1.2184696791468346e-07,0.0,0.0,0.0,1.2184696791468346e-07,-0.43590831756591797,0.15151016414165616,9.762654304504395,8.999999999999999e-08,0.0,0.0,0.0,8.999999999999999e-08,0.0,0.0,0.0,8.999999999999999e-08
1719006631.3777912,38025,1719006631,371609152,base_link,0.017017692333408514,-0.016366549783377295,-0.8934338891354802,-0.44857377666244824,1.0,0.0,0.0,0.0,1.0,0.0,0.0,0.0,1.0,-0.0002304287627339363,0.00017571638454683125,5.060399416834114e-05,1.2184696791468346e-07,0.0,0.0,0.0,1.2184696791468346e-07,0.0,0.0,0.0,1.2184696791468346e-07,-0.4543619453907013,0.1459268033504498,9.781036376953125,8.999999999999999e-08,0.0,0.0,0.0,8.999999999999999e-08,0.0,0.0,0.0,8.999999999999999e-08
1719006631.382852,38026,1719006631,376609152,base_link,0.01701923717592666,-0.016365837341117236,-0.893434289530541,-0.44857295479890225,1.0,0.0,0.0,0.0,1.0,0.0,0.0,0.0,1.0,-0.00027558673173189163,0.0004124971455894411,0.0002914100186899304,1.2184696791468346e-07,0.0,0.0,0.0,1.2184696791468346e-07,0.0,0.0,0.0,1.2184696791468346e-07,-0.4578419029712677,0.15358106791973233,9.796701431274414,8.999999999999999e-08,0.0,0.0,0.0,8.999999999999999e-08,0.0,0.0,0.0,8.999999999999999e-08
1719006631.389301,38027,1719006631,381609152,base_link,0.017021855569469918,-0.01636544482801096,-0.893434774219299,-0.44857213293535625,1.0,0.0,0.0,0.0,1.0,0.0,0.0,0.0,1.0,-0.0006638398626819253,0.00041353929555043584,0.00043307931628078217,1.2184696791468346e-07,0.0,0.0,0.0,1.2184696791468346e-07,0.0,0.0,0.0,1.2184696791468346e-07,-0.45316651463508606,0.15088844299316526,9.802852630615234,8.999999999999999e-08,0.0,0.0,0.0,8.999999999999999e-08,0.0,0.0,0.0,8.999999999999999e-08
1719006631.39429,38028,1719006631,386609152,base_link,0.017022955956183725,-0.0163631432561146,-0.8934357225233904,-0.4485702574005976,1.0,0.0,0.0,0.0,1.0,0.0,0.0,0.0,1.0,-0.0006761945551261306,0.00047946264385245746,0.0004158912925049662,1.2184696791468346e-07,0.0,0.0,0.0,1.2184696791468346e-07,0.0,0.0,0.0,1.2184696791468346e-07,-0.4487348198890686,0.1300150305032742,9.782429695129395,8.999999999999999e-08,0.0,0.0,0.0,8.999999999999999e-08,0.0,0.0,0.0,8.999999999999999e-08
1719006631.4003265,38029,1719006631,396609152,base_link,0.017021502466136543,-0.016366764674682056,-0.8934361229184512,-0.4485691826559606,1.0,0.0,0.0,0.0,1.0,0.0,0.0,0.0,1.0,0.00035352708073332906,0.00020250958914402878,0.0004322095774114132,1.2184696791468346e-07,0.0,0.0,0.0,1.2184696791468346e-07,0.0,0.0,0.0,1.2184696791468346e-07,-0.44026339054107666,0.14371517300605893,9.802459716796875,8.999999999999999e-08,0.0,0.0,0.0,8.999999999999999e-08,0.0,0.0,0.0,8.999999999999999e-08
1719006631.4075377,38030,1719006631,401609152,base_link,0.017019041711684887,-0.016367168136090772,-0.8934352167612083,-0.4485711003375678,1.0,0.0,0.0,0.0,1.0,0.0,0.0,0.0,1.0,0.0006400265847332776,-0.00039598162402398884,-0.00015544067719019944,1.2184696791468346e-07,0.0,0.0,0.0,1.2184696791468346e-07,0.0,0.0,0.0,1.2184696791468346e-07,-0.44992294907569885,0.1328141838312161,9.804021835327148,8.999999999999999e-08,0.0,0.0,0.0,8.999999999999999e-08,0.0,0.0,0.0,8.999999999999999e-08
1719006631.413889,38031,1719006631,406609152,base_link,0.017018750388058168,-0.01636768336485021,-0.893434858512996,-0.44857188005426524,1.0,0.0,0.0,0.0,1.0,0.0,0.0,0.0,1.0,0.0003711814642883837,-0.00021653412841260439,-0.0004288552445359528,1.2184696791468346e-07,0.0,0.0,0.0,1.2184696791468346e-07,0.0,0.0,0.0,1.2184696791468346e-07,-0.44298067688941956,0.14471326768398404,9.798234939575195,8.999999999999999e-08,0.0,0.0,0.0,8.999999999999999e-08,0.0,0.0,0.0,8.999999999999999e-08
1719006631.4215393,38032,1719006631,411609152,base_link,0.017020419139841397,-0.016367434435026192,-0.8934347109990262,-0.448572027568235,1.0,0.0,0.0,0.0,1.0,0.0,0.0,0.0,1.0,-0.00012349901953712106,0.0001842864439822733,-0.000323664047755301,1.2184696791468346e-07,0.0,0.0,0.0,1.2184696791468346e-07,0.0,0.0,0.0,1.2184696791468346e-07,-0.43875378370285034,0.1530509591102612,9.77816390991211,8.999999999999999e-08,0.0,0.0,0.0,8.999999999999999e-08,0.0,0.0,0.0,8.999999999999999e-08
1719006631.4231856,38033,1719006631,416609152,base_link,0.017020751519602285,-0.0163672337641669,-0.8934344159710865,-0.4485725754772657,1.0,0.0,0.0,0.0,1.0,0.0,0.0,0.0,1.0,-0.00020877155475318432,0.0002630199596751481,-0.0003213212476111949,1.2184696791468346e-07,0.0,0.0,0.0,1.2184696791468346e-07,0.0,0.0,0.0,1.2184696791468346e-07,-0.4572126567363739,0.15949024260044217,9.791023254394531,8.999999999999999e-08,0.0,0.0,0.0,8.999999999999999e-08,0.0,0.0,0.0,8.999999999999999e-08
1719006631.4303393,38034,1719006631,421609152,base_link,0.01702120303418057,-0.016366292292474674,-0.8934337626949347,-0.4485739031029938,1.0,0.0,0.0,0.0,1.0,0.0,0.0,0.0,1.0,-0.0003442640881985426,0.0002739541523624211,-0.0004419462638907135,1.2184696791468346e-07,0.0,0.0,0.0,1.2184696791468346e-07,0.0,0.0,0.0,1.2184696791468346e-07,-0.46436619758605957,0.13653455674648404,9.774630546569824,8.999999999999999e-08,0.0,0.0,0.0,8.999999999999999e-08,0.0,0.0,0.0,8.999999999999999e-08
1719006631.4336135,38035,1719006631,426609152,base_link,0.017022526914436776,-0.016366559455749757,-0.8934326458034492,-0.4485760315188436,1.0,0.0,0.0,0.0,1.0,0.0,0.0,0.0,1.0,-0.00016350956866517663,0.00015400661504827432,-0.0005983888986520469,1.2184696791468346e-07,0.0,0.0,0.0,1.2184696791468346e-07,0.0,0.0,0.0,1.2184696791468346e-07,-0.44714635610580444,0.11713552474975705,9.778493881225586,8.999999999999999e-08,0.0,0.0,0.0,8.999999999999999e-08,0.0,0.0,0.0,8.999999999999999e-08
1719006631.4396055,38036,1719006631,431609152,base_link,0.01702174267024583,-0.016367227796107293,-0.8934326879502976,-0.4485759893719951,1.0,0.0,0.0,0.0,1.0,0.0,0.0,0.0,1.0,0.0003129051183350384,-2.215588028775532e-05,-0.0003236824704799801,1.2184696791468346e-07,0.0,0.0,0.0,1.2184696791468346e-07,0.0,0.0,0.0,1.2184696791468346e-07,-0.44499969482421875,0.12811683118343473,9.794126510620117,8.999999999999999e-08,0.0,0.0,0.0,8.999999999999999e-08,0.0,0.0,0.0,8.999999999999999e-08
1719006631.4457803,38037,1719006631,441609152,base_link,0.01702071418836049,-0.016368582916068596,-0.8934309177826602,-0.44857952970726994,1.0,0.0,0.0,0.0,1.0,0.0,0.0,0.0,1.0,0.00035489624133333564,-9.781655535334728e-05,-0.0005885088467039168,1.2184696791468346e-07,0.0,0.0,0.0,1.2184696791468346e-07,0.0,0.0,0.0,1.2184696791468346e-07,-0.4441681504249573,0.14297012984752774,9.797856330871582,8.999999999999999e-08,0.0,0.0,0.0,8.999999999999999e-08,0.0,0.0,0.0,8.999999999999999e-08
1719006631.4522512,38038,1719006631,446609152,base_link,0.01702063436041841,-0.016368315032510457,-0.8934308967092358,-0.4485795507806942,1.0,0.0,0.0,0.0,1.0,0.0,0.0,0.0,1.0,-1.2268137652426958e-05,-7.503323286073289e-05,-0.0005933003267273307,1.2184696791468346e-07,0.0,0.0,0.0,1.2184696791468346e-07,0.0,0.0,0.0,1.2184696791468346e-07,-0.44035494327545166,0.14873111248016477,9.792319297790527,8.999999999999999e-08,0.0,0.0,0.0,8.999999999999999e-08,0.0,0.0,0.0,8.999999999999999e-08
