Time,header.seq,header.stamp.secs,header.stamp.nsecs,header.frame_id,orientation.x,orientation.y,orientation.z,orientation.w,orientation_covariance_0,orientation_covariance_1,orientation_covariance_2,orientation_covariance_3,orientation_covariance_4,orientation_covariance_5,orientation_covariance_6,orientation_covariance_7,orientation_covariance_8,angular_velocity.x,angular_velocity.y,angular_velocity.z,angular_velocity_covariance_0,angular_velocity_covariance_1,angular_velocity_covariance_2,angular_velocity_covariance_3,angular_velocity_covariance_4,angular_velocity_covariance_5,angular_velocity_covariance_6,angular_velocity_covariance_7,angular_velocity_covariance_8,linear_acceleration.x,linear_acceleration.y,linear_acceleration.z,linear_acceleration_covariance_0,linear_acceleration_covariance_1,linear_acceleration_covariance_2,linear_acceleration_covariance_3,linear_acceleration_covariance_4,linear_acceleration_covariance_5,linear_acceleration_covariance_6,linear_acceleration_covariance_7,linear_acceleration_covariance_8
1719006712.1719968,51847,1719006712,161999808,base_link,0.016747801984359694,-0.005789371783158547,-0.7956586164602396,-0.6054862197139914,1.0,0.0,0.0,0.0,1.0,0.0,0.0,0.0,1.0,-0.0002895185607485473,0.0003113532438874245,0.0006244016694836318,1.2184696791468346e-07,0.0,0.0,0.0,1.2184696791468346e-07,0.0,0.0,0.0,1.2184696791468346e-07,-0.3403075933456421,-0.10610848665237306,9.817171096801758,8.999999999999999e-08,0.0,0.0,0.0,8.999999999999999e-08,0.0,0.0,0.0,8.999999999999999e-08
1719006712.1720688,51848,1719006712,166999808,base_link,0.016748262965515282,-0.005787414588880824,-0.7956590168553005,-0.6054854821441424,1.0,0.0,0.0,0.0,1.0,0.0,0.0,0.0,1.0,-0.0004139260563533753,-3.326401929371054e-05,0.0003983275964856148,1.2184696791468346e-07,0.0,0.0,0.0,1.2184696791468346e-07,0.0,0.0,0.0,1.2184696791468346e-07,-0.32809150218963623,-0.11523039638996004,9.807151794433594,8.999999999999999e-08,0.0,0.0,0.0,8.999999999999999e-08,0.0,0.0,0.0,8.999999999999999e-08
1719006712.1788507,51849,1719006712,171999808,base_link,0.016746675214706536,-0.005789455418311062,-0.7956593961769372,-0.6054851871162029,1.0,0.0,0.0,0.0,1.0,0.0,0.0,0.0,1.0,0.00046031828969717026,-6.760076212231067e-05,0.00019359373254701495,1.2184696791468346e-07,0.0,0.0,0.0,1.2184696791468346e-07,0.0,0.0,0.0,1.2184696791468346e-07,-0.3205593526363373,-0.1226566657423961,9.813739776611328,8.999999999999999e-08,0.0,0.0,0.0,8.999999999999999e-08,0.0,0.0,0.0,8.999999999999999e-08
1719006712.184732,51850,1719006712,176999808,base_link,0.016746683446512884,-0.005790016168959608,-0.7956590484654369,-0.605485450534006,1.0,0.0,0.0,0.0,1.0,0.0,0.0,0.0,1.0,0.0005258471937850118,5.428788426797838e-05,6.277835927903652e-05,1.2184696791468346e-07,0.0,0.0,0.0,1.2184696791468346e-07,0.0,0.0,0.0,1.2184696791468346e-07,-0.3215474784374237,-0.12066105753183244,9.803292274475098,8.999999999999999e-08,0.0,0.0,0.0,8.999999999999999e-08,0.0,0.0,0.0,8.999999999999999e-08
1719006712.1889596,51851,1719006712,181999808,base_link,0.016746280088001744,-0.005789995424807607,-0.7956595436909069,-0.6054849553085361,1.0,0.0,0.0,0.0,1.0,0.0,0.0,0.0,1.0,9.540107566863298e-05,0.00014726340305060148,3.283959813415986e-06,1.2184696791468346e-07,0.0,0.0,0.0,1.2184696791468346e-07,0.0,0.0,0.0,1.2184696791468346e-07,-0.33454474806785583,-0.10645966231822847,9.812662124633789,8.999999999999999e-08,0.0,0.0,0.0,8.999999999999999e-08,0.0,0.0,0.0,8.999999999999999e-08
1719006712.19483,51852,1719006712,186999808,base_link,0.01674906968253756,-0.005790177183091811,-0.7956591011489976,-0.6054854821441426,1.0,0.0,0.0,0.0,1.0,0.0,0.0,0.0,1.0,-2.5833200197666883e-05,0.0004862352507188916,-7.547205314040243e-06,1.2184696791468346e-07,0.0,0.0,0.0,1.2184696791468346e-07,0.0,0.0,0.0,1.2184696791468346e-07,-0.31164953112602234,-0.12322049587964891,9.806068420410156,8.999999999999999e-08,0.0,0.0,0.0,8.999999999999999e-08,0.0,0.0,0.0,8.999999999999999e-08
1719006712.2018719,51853,1719006712,196999808,base_link,0.01675055865167011,-0.005789383636959691,-0.7956601864303467,-0.6054840596880052,1.0,0.0,0.0,0.0,1.0,0.0,0.0,0.0,1.0,-0.0001687123440206051,0.0002932499628514052,0.00026143912691622967,1.2184696791468346e-07,0.0,0.0,0.0,1.2184696791468346e-07,0.0,0.0,0.0,1.2184696791468346e-07,-0.32184040546417236,-0.1076396405696857,9.795269012451172,8.999999999999999e-08,0.0,0.0,0.0,8.999999999999999e-08,0.0,0.0,0.0,8.999999999999999e-08
1719006712.2082746,51854,1719006712,201999808,base_link,0.016749692007097604,-0.005787097170427975,-0.7956607554128016,-0.6054832378244592,1.0,0.0,0.0,0.0,1.0,0.0,0.0,0.0,1.0,-0.00030284482636488974,-0.000236437888815999,0.0001999685191549361,1.2184696791468346e-07,0.0,0.0,0.0,1.2184696791468346e-07,0.0,0.0,0.0,1.2184696791468346e-07,-0.3248514235019684,-0.10880363732576251,9.797687530517578,8.999999999999999e-08,0.0,0.0,0.0,8.999999999999999e-08,0.0,0.0,0.0,8.999999999999999e-08
1719006712.2140949,51855,1719006712,206999808,base_link,0.01675065545771278,-0.005785522590509389,-0.7956594067136493,-0.6054850079920967,1.0,0.0,0.0,0.0,1.0,0.0,0.0,0.0,1.0,-0.000381956750061363,-0.00037994273588992655,-0.00019609063747338945,1.2184696791468346e-07,0.0,0.0,0.0,1.2184696791468346e-07,0.0,0.0,0.0,1.2184696791468346e-07,-0.32877209782600403,-0.11659855395555377,9.795132637023926,8.999999999999999e-08,0.0,0.0,0.0,8.999999999999999e-08,0.0,0.0,0.0,8.999999999999999e-08
1719006712.2169588,51856,1719006712,211999808,base_link,0.01675091130225413,-0.0057840813658536685,-0.7956590063185883,-0.6054854926808546,1.0,0.0,0.0,0.0,1.0,0.0,0.0,0.0,1.0,-0.00039959241985343397,-0.0002963530423585326,-0.00025964149972423906,1.2184696791468346e-07,0.0,0.0,0.0,1.2184696791468346e-07,0.0,0.0,0.0,1.2184696791468346e-07,-0.3283219635486603,-0.13219338655471682,9.793283462524414,8.999999999999999e-08,0.0,0.0,0.0,8.999999999999999e-08,0.0,0.0,0.0,8.999999999999999e-08
1719006712.2228596,51857,1719006712,216999808,base_link,0.016750624176848652,-0.005784157757016595,-0.7956580790879212,-0.60548675708631,1.0,0.0,0.0,0.0,1.0,0.0,0.0,0.0,1.0,-0.00011102319695055485,3.7165882531553446e-05,-0.0005004526465199888,1.2184696791468346e-07,0.0,0.0,0.0,1.2184696791468346e-07,0.0,0.0,0.0,1.2184696791468346e-07,-0.32170742750167847,-0.10994460433721423,9.796957015991211,8.999999999999999e-08,0.0,0.0,0.0,8.999999999999999e-08,0.0,0.0,0.0,8.999999999999999e-08
1719006712.2293231,51858,1719006712,221999808,base_link,0.016753124670345464,-0.005784159732650118,-0.7956574679586178,-0.6054876210967044,1.0,0.0,0.0,0.0,1.0,0.0,0.0,0.0,1.0,-5.1863957196474075e-05,0.00033676196471787984,-0.0005064217839390039,1.2184696791468346e-07,0.0,0.0,0.0,1.2184696791468346e-07,0.0,0.0,0.0,1.2184696791468346e-07,-0.3463396728038788,-0.11975593119859576,9.778865814208984,8.999999999999999e-08,0.0,0.0,0.0,8.999999999999999e-08,0.0,0.0,0.0,8.999999999999999e-08
1719006712.2351418,51859,1719006712,226999808,base_link,0.016751737117067143,-0.005784414589374709,-0.7956567093153445,-0.6054884640336746,1.0,0.0,0.0,0.0,1.0,0.0,0.0,0.0,1.0,0.00022384210024029016,0.00015363987768068907,-0.0003131772391498089,1.2184696791468346e-07,0.0,0.0,0.0,1.2184696791468346e-07,0.0,0.0,0.0,1.2184696791468346e-07,-0.32293465733528137,-0.11674197763204454,9.803363800048828,8.999999999999999e-08,0.0,0.0,0.0,8.999999999999999e-08,0.0,0.0,0.0,8.999999999999999e-08
1719006712.2450519,51860,1719006712,236999808,base_link,0.016751195464209327,-0.005784284526834381,-0.7956567514621931,-0.6054884218868261,1.0,0.0,0.0,0.0,1.0,0.0,0.0,0.0,1.0,0.0003746871370822191,-8.910534961614759e-05,-0.00016473184223286808,1.2184696791468346e-07,0.0,0.0,0.0,1.2184696791468346e-07,0.0,0.0,0.0,1.2184696791468346e-07,-0.32142165303230286,-0.10753978788852572,9.800963401794434,8.999999999999999e-08,0.0,0.0,0.0,8.999999999999999e-08,0.0,0.0,0.0,8.999999999999999e-08
1719006712.24832,51861,1719006712,241999808,base_link,0.016749218513596363,-0.005783053048604453,-0.7956579526473757,-0.6054871364079466,1.0,0.0,0.0,0.0,1.0,0.0,0.0,0.0,1.0,0.00020213378593325615,-0.00047658020048402244,0.0005575331742875279,1.2184696791468346e-07,0.0,0.0,0.0,1.2184696791468346e-07,0.0,0.0,0.0,1.2184696791468346e-07,-0.33864304423332214,-0.11381160467862964,9.800898551940918,8.999999999999999e-08,0.0,0.0,0.0,8.999999999999999e-08,0.0,0.0,0.0,8.999999999999999e-08
1719006712.2510808,51862,1719006712,246999808,base_link,0.016750001523016356,-0.005781440273104403,-0.7956585005564063,-0.6054862513241278,1.0,0.0,0.0,0.0,1.0,0.0,0.0,0.0,1.0,-0.000123892561532557,-0.00048431128379888827,0.000497473345603794,1.2184696791468346e-07,0.0,0.0,0.0,1.2184696791468346e-07,0.0,0.0,0.0,1.2184696791468346e-07,-0.33740419149398804,-0.10964056104421496,9.801739692687988,8.999999999999999e-08,0.0,0.0,0.0,8.999999999999999e-08,0.0,0.0,0.0,8.999999999999999e-08
1719006712.257429,51863,1719006712,251999808,base_link,0.01675150004104427,-0.005781711922713946,-0.7956571307838296,-0.6054880425651895,1.0,0.0,0.0,0.0,1.0,0.0,0.0,0.0,1.0,-0.00028672785265371203,-0.00013168799341656268,4.028272815048696e-05,1.2184696791468346e-07,0.0,0.0,0.0,1.2184696791468346e-07,0.0,0.0,0.0,1.2184696791468346e-07,-0.32840126752853394,-0.10760086029767871,9.802078247070312,8.999999999999999e-08,0.0,0.0,0.0,8.999999999999999e-08,0.0,0.0,0.0,8.999999999999999e-08
1719006712.2632813,51864,1719006712,256999552,base_link,0.01675223201326489,-0.005781177513845719,-0.7956564669709656,-0.6054888749654476,1.0,0.0,0.0,0.0,1.0,0.0,0.0,0.0,1.0,-0.00012215168680995703,0.00025272532366216177,-0.00036335512413643306,1.2184696791468346e-07,0.0,0.0,0.0,1.2184696791468346e-07,0.0,0.0,0.0,1.2184696791468346e-07,-0.3316623270511627,-0.08684050291776538,9.800701141357422,8.999999999999999e-08,0.0,0.0,0.0,8.999999999999999e-08,0.0,0.0,0.0,8.999999999999999e-08
1719006712.2690637,51865,1719006712,261999552,base_link,0.016751000864307218,-0.00578335960107292,-0.7956558663783743,-0.6054896441454329,1.0,0.0,0.0,0.0,1.0,0.0,0.0,0.0,1.0,0.0004033647710457444,0.00033066343166865403,-0.00028279257821850484,1.2184696791468346e-07,0.0,0.0,0.0,1.2184696791468346e-07,0.0,0.0,0.0,1.2184696791468346e-07,-0.3264472782611847,-0.11282867938279986,9.785866737365723,8.999999999999999e-08,0.0,0.0,0.0,8.999999999999999e-08,0.0,0.0,0.0,8.999999999999999e-08
1719006712.2753103,51866,1719006712,266999552,base_link,0.01675120204965441,-0.005783450809487275,-0.7956561824797382,-0.605489243750372,1.0,0.0,0.0,0.0,1.0,0.0,0.0,0.0,1.0,0.00017922138795256615,0.00020333127758931369,-0.0001018887560348958,1.2184696791468346e-07,0.0,0.0,0.0,1.2184696791468346e-07,0.0,0.0,0.0,1.2184696791468346e-07,-0.3186787962913513,-0.11925803869962573,9.796507835388184,8.999999999999999e-08,0.0,0.0,0.0,8.999999999999999e-08,0.0,0.0,0.0,8.999999999999999e-08
1719006712.2840412,51867,1719006712,276999552,base_link,0.016752660396467334,-0.005781320747276206,-0.7956563510671323,-0.605489075162978,1.0,0.0,0.0,0.0,1.0,0.0,0.0,0.0,1.0,-0.00011572916992008686,0.0002256575971841812,4.8602989409118864e-05,1.2184696791468346e-07,0.0,0.0,0.0,1.2184696791468346e-07,0.0,0.0,0.0,1.2184696791468346e-07,-0.3140791356563568,-0.11416643857955812,9.80715560913086,8.999999999999999e-08,0.0,0.0,0.0,8.999999999999999e-08,0.0,0.0,0.0,8.999999999999999e-08
1719006712.2874894,51868,1719006712,281999552,base_link,0.016750728226880913,-0.005781611823948733,-0.795655097198389,-0.6054907505002063,1.0,0.0,0.0,0.0,1.0,0.0,0.0,0.0,1.0,0.00011492159683257341,-0.0003299057134427131,-0.00022500762133859095,1.2184696791468346e-07,0.0,0.0,0.0,1.2184696791468346e-07,0.0,0.0,0.0,1.2184696791468346e-07,-0.3150801956653595,-0.11610326915979265,9.810413360595703,8.999999999999999e-08,0.0,0.0,0.0,8.999999999999999e-08,0.0,0.0,0.0,8.999999999999999e-08
1719006712.2931073,51869,1719006712,286999552,base_link,0.016749412454953965,-0.005782029341166794,-0.7956546651931918,-0.6054912667991006,1.0,0.0,0.0,0.0,1.0,0.0,0.0,0.0,1.0,0.0004340842133387923,-0.00028877466684207326,-0.00033842882839962835,1.2184696791468346e-07,0.0,0.0,0.0,1.2184696791468346e-07,0.0,0.0,0.0,1.2184696791468346e-07,-0.3260960280895233,-0.0997023507952678,9.807610511779785,8.999999999999999e-08,0.0,0.0,0.0,8.999999999999999e-08,0.0,0.0,0.0,8.999999999999999e-08
1719006712.2992482,51870,1719006712,291999552,base_link,0.016750121048844553,-0.005782940766765843,-0.7956541488942975,-0.6054919516853889,1.0,0.0,0.0,0.0,1.0,0.0,0.0,0.0,1.0,0.0003404580056667328,5.2593124564737034e-05,-0.00041241449071094394,1.2184696791468346e-07,0.0,0.0,0.0,1.2184696791468346e-07,0.0,0.0,0.0,1.2184696791468346e-07,-0.33156782388687134,-0.10648804903030275,9.811363220214844,8.999999999999999e-08,0.0,0.0,0.0,8.999999999999999e-08,0.0,0.0,0.0,8.999999999999999e-08
1719006712.3056815,51871,1719006712,296999552,base_link,0.01674948884611689,-0.005783135695940206,-0.7956543912386764,-0.6054916250473129,1.0,0.0,0.0,0.0,1.0,0.0,0.0,0.0,1.0,0.00014794786693528295,-0.00010519723582547157,0.0001577087678015232,1.2184696791468346e-07,0.0,0.0,0.0,1.2184696791468346e-07,0.0,0.0,0.0,1.2184696791468346e-07,-0.32398277521133423,-0.1135481446981418,9.8069429397583,8.999999999999999e-08,0.0,0.0,0.0,8.999999999999999e-08,0.0,0.0,0.0,8.999999999999999e-08
1719006712.3110037,51872,1719006712,306999552,base_link,0.016750413442606096,-0.005781120549745778,-0.7956564353608292,-0.605489075162978,1.0,0.0,0.0,0.0,1.0,0.0,0.0,0.0,1.0,-0.0001587491133250296,4.300068394513808e-05,0.0006125106592662632,1.2184696791468346e-07,0.0,0.0,0.0,1.2184696791468346e-07,0.0,0.0,0.0,1.2184696791468346e-07,-0.33106982707977295,-0.11341986805200456,9.804384231567383,8.999999999999999e-08,0.0,0.0,0.0,8.999999999999999e-08,0.0,0.0,0.0,8.999999999999999e-08
1719006712.3202126,51873,1719006712,311999552,base_link,0.016751665006443518,-0.0057797425453628235,-0.7956557715479652,-0.605489738975842,1.0,0.0,0.0,0.0,1.0,0.0,0.0,0.0,1.0,-0.00022186822025105357,1.639023685129361e-05,0.00013176864013075829,1.2184696791468346e-07,0.0,0.0,0.0,1.2184696791468346e-07,0.0,0.0,0.0,1.2184696791468346e-07,-0.3245014548301697,-0.11163466423749804,9.78470516204834,8.999999999999999e-08,0.0,0.0,0.0,8.999999999999999e-08,0.0,0.0,0.0,8.999999999999999e-08
1719006712.3230505,51874,1719006712,316999552,base_link,0.01674866138494261,-0.005779701057058821,-0.7956558558416622,-0.6054897389758421,1.0,0.0,0.0,0.0,1.0,0.0,0.0,0.0,1.0,2.7826812583953142e-05,-0.0003952847619075328,-0.0001061370712704956,1.2184696791468346e-07,0.0,0.0,0.0,1.2184696791468346e-07,0.0,0.0,0.0,1.2184696791468346e-07,-0.3167133629322052,-0.10887077450752139,9.783720970153809,8.999999999999999e-08,0.0,0.0,0.0,8.999999999999999e-08,0.0,0.0,0.0,8.999999999999999e-08
1719006712.3266244,51875,1719006712,321999552,base_link,0.01674923036739751,-0.005780399114237282,-0.7956548759274343,-0.6054910560648581,1.0,0.0,0.0,0.0,1.0,0.0,0.0,0.0,1.0,0.00016764929750934243,-0.0002861017128452659,-0.00027824353310279543,1.2184696791468346e-07,0.0,0.0,0.0,1.2184696791468346e-07,0.0,0.0,0.0,1.2184696791468346e-07,-0.3242650032043457,-0.12561024725437045,9.80155086517334,8.999999999999999e-08,0.0,0.0,0.0,8.999999999999999e-08,0.0,0.0,0.0,8.999999999999999e-08
1719006712.3320324,51876,1719006712,326999552,base_link,0.016750780910441552,-0.005780626641364791,-0.7956535693751304,-0.605492615498253,1.0,0.0,0.0,0.0,1.0,0.0,0.0,0.0,1.0,8.543586591258645e-05,0.0001971881138160824,-0.0005730220000259578,1.2184696791468346e-07,0.0,0.0,0.0,1.2184696791468346e-07,0.0,0.0,0.0,1.2184696791468346e-07,-0.3309065103530884,-0.09510039538144945,9.80316162109375,8.999999999999999e-08,0.0,0.0,0.0,8.999999999999999e-08,0.0,0.0,0.0,8.999999999999999e-08
1719006712.3381903,51877,1719006712,331999552,base_link,0.01675110820706202,-0.005779432700171818,-0.7956537274258124,-0.605492626034965,1.0,0.0,0.0,0.0,1.0,0.0,0.0,0.0,1.0,-0.00015560997417196631,2.6176923711318475e-05,-0.00038828488322906196,1.2184696791468346e-07,0.0,0.0,0.0,1.2184696791468346e-07,0.0,0.0,0.0,1.2184696791468346e-07,-0.32303735613822937,-0.09650979936122774,9.807661056518555,8.999999999999999e-08,0.0,0.0,0.0,8.999999999999999e-08,0.0,0.0,0.0,8.999999999999999e-08
1719006712.3441348,51878,1719006712,336999552,base_link,0.016751004815574268,-0.005776514689456946,-0.7956533902510243,-0.6054930475034502,1.0,0.0,0.0,0.0,1.0,0.0,0.0,0.0,1.0,-0.0004988018772564828,-0.0002813943137880415,-0.0003270171873737126,1.2184696791468346e-07,0.0,0.0,0.0,1.2184696791468346e-07,0.0,0.0,0.0,1.2184696791468346e-07,-0.34452563524246216,-0.10521077364683032,9.787125587463379,8.999999999999999e-08,0.0,0.0,0.0,8.999999999999999e-08,0.0,0.0,0.0,8.999999999999999e-08
1719006712.3502345,51879,1719006712,346999552,base_link,0.01674941871112679,-0.005777039220157556,-0.7956518308176295,-0.6054951126990272,1.0,0.0,0.0,0.0,1.0,0.0,0.0,0.0,1.0,-4.2078609112650156e-05,-0.00030655247974209493,-0.0003210194990970194,1.2184696791468346e-07,0.0,0.0,0.0,1.2184696791468346e-07,0.0,0.0,0.0,1.2184696791468346e-07,-0.34053072333335876,-0.11365602165460466,9.806291580200195,8.999999999999999e-08,0.0,0.0,0.0,8.999999999999999e-08,0.0,0.0,0.0,8.999999999999999e-08
1719006712.3591902,51880,1719006712,351999552,base_link,0.016752813837337694,-0.0057767972050508706,-0.7956521047721448,-0.6054946701571179,1.0,0.0,0.0,0.0,1.0,0.0,0.0,0.0,1.0,-4.693807568401098e-06,0.0003315397771075368,-0.00012864690506830814,1.2184696791468346e-07,0.0,0.0,0.0,1.2184696791468346e-07,0.0,0.0,0.0,1.2184696791468346e-07,-0.31466957926750183,-0.1102580428123462,9.8165922164917,8.999999999999999e-08,0.0,0.0,0.0,8.999999999999999e-08,0.0,0.0,0.0,8.999999999999999e-08
1719006712.3621407,51881,1719006712,357002880,base_link,0.01675252638265996,-0.005778212087926273,-0.7956525578507663,-0.6054940484911023,1.0,0.0,0.0,0.0,1.0,0.0,0.0,0.0,1.0,5.719042383134365e-05,0.000463298027170822,6.911001401022071e-05,1.2184696791468346e-07,0.0,0.0,0.0,1.2184696791468346e-07,0.0,0.0,0.0,1.2184696791468346e-07,-0.31807783246040344,-0.11412943154573321,9.798864364624023,8.999999999999999e-08,0.0,0.0,0.0,8.999999999999999e-08,0.0,0.0,0.0,8.999999999999999e-08
1719006712.3689404,51882,1719006712,362002880,base_link,0.016752840837662524,-0.0057781926608632865,-0.7956533375674637,-0.6054930158933137,1.0,0.0,0.0,0.0,1.0,0.0,0.0,0.0,1.0,-0.000262108922470361,0.00037034301203675574,0.00024172279518097634,1.2184696791468346e-07,0.0,0.0,0.0,1.2184696791468346e-07,0.0,0.0,0.0,1.2184696791468346e-07,-0.3216978907585144,-0.10637377947568773,9.81145191192627,8.999999999999999e-08,0.0,0.0,0.0,8.999999999999999e-08,0.0,0.0,0.0,8.999999999999999e-08
1719006712.37415,51883,1719006712,367002880,base_link,0.01675586092277613,-0.005775507116359733,-0.7956537274258124,-0.605492457447571,1.0,0.0,0.0,0.0,1.0,0.0,0.0,0.0,1.0,-0.0006314283236861229,0.0004543242102954537,0.0005677065928466617,1.2184696791468346e-07,0.0,0.0,0.0,1.2184696791468346e-07,0.0,0.0,0.0,1.2184696791468346e-07,-0.34549781680107117,-0.10601421445608018,9.813745498657227,8.999999999999999e-08,0.0,0.0,0.0,8.999999999999999e-08,0.0,0.0,0.0,8.999999999999999e-08
1719006712.3801289,51884,1719006712,377002880,base_link,0.0167589149229319,-0.005771765595737629,-0.7956531900534939,-0.6054931634072835,1.0,0.0,0.0,0.0,1.0,0.0,0.0,0.0,1.0,-0.0009313414338976145,0.00015115323185455057,0.00012460548896342513,1.2184696791468346e-07,0.0,0.0,0.0,1.2184696791468346e-07,0.0,0.0,0.0,1.2184696791468346e-07,-0.3341481685638428,-0.10560673475265382,9.81200885772705,8.999999999999999e-08,0.0,0.0,0.0,8.999999999999999e-08,0.0,0.0,0.0,8.999999999999999e-08
1719006712.3863637,51885,1719006712,382002880,base_link,0.016757175048341812,-0.005773371127248091,-0.7956531479066453,-0.6054932055541321,1.0,0.0,0.0,0.0,1.0,0.0,0.0,0.0,1.0,-0.00011899328092113137,-2.4246095563285076e-05,-0.00019373997929506004,1.2184696791468346e-07,0.0,0.0,0.0,1.2184696791468346e-07,0.0,0.0,0.0,1.2184696791468346e-07,-0.32470351457595825,-0.10604901611804841,9.802401542663574,8.999999999999999e-08,0.0,0.0,0.0,8.999999999999999e-08,0.0,0.0,0.0,8.999999999999999e-08
1719006712.3920362,51886,1719006712,387002880,base_link,0.016758449990509267,-0.005774511726335918,-0.7956534956181457,-0.6054927735489349,1.0,0.0,0.0,0.0,1.0,0.0,0.0,0.0,1.0,0.0004005733644589782,0.0001559222728246823,-8.340750355273487e-05,1.2184696791468346e-07,0.0,0.0,0.0,1.2184696791468346e-07,0.0,0.0,0.0,1.2184696791468346e-07,-0.32078078389167786,-0.11655462533235429,9.818673133850098,8.999999999999999e-08,0.0,0.0,0.0,8.999999999999999e-08,0.0,0.0,0.0,8.999999999999999e-08
1719006712.3992064,51887,1719006712,392002880,base_link,0.016755916569787057,-0.005775375078185883,-0.7956542858715552,-0.6054917304144342,1.0,0.0,0.0,0.0,1.0,0.0,0.0,0.0,1.0,0.0006272585596889257,8.314331353176388e-05,0.0002400570665486157,1.2184696791468346e-07,0.0,0.0,0.0,1.2184696791468346e-07,0.0,0.0,0.0,1.2184696791468346e-07,-0.3460685610771179,-0.0952756553888309,9.791753768920898,8.999999999999999e-08,0.0,0.0,0.0,8.999999999999999e-08,0.0,0.0,0.0,8.999999999999999e-08
1719006712.4041328,51888,1719006712,397002880,base_link,0.016756736457699494,-0.005776246332569944,-0.7956545387526462,-0.6054913932396462,1.0,0.0,0.0,0.0,1.0,0.0,0.0,0.0,1.0,0.0004911964060738683,-4.606306902132877e-06,0.00042167253559455276,1.2184696791468346e-07,0.0,0.0,0.0,1.2184696791468346e-07,0.0,0.0,0.0,1.2184696791468346e-07,-0.3284689784049988,-0.10814897716045259,9.808871269226074,8.999999999999999e-08,0.0,0.0,0.0,8.999999999999999e-08,0.0,0.0,0.0,8.999999999999999e-08
1719006712.4111845,51889,1719006712,407002880,base_link,0.016755771031450793,-0.0057763003332195985,-0.7956534640080093,-0.6054928051590712,1.0,0.0,0.0,0.0,1.0,0.0,0.0,0.0,1.0,0.0004348810762166977,-8.46463954076171e-05,-6.22644438408315e-05,1.2184696791468346e-07,0.0,0.0,0.0,1.2184696791468346e-07,0.0,0.0,0.0,1.2184696791468346e-07,-0.3255254030227661,-0.10968355089425921,9.793517112731934,8.999999999999999e-08,0.0,0.0,0.0,8.999999999999999e-08,0.0,0.0,0.0,8.999999999999999e-08
1719006712.4174922,51890,1719006712,412002880,base_link,0.016756994936418877,-0.005775721801869335,-0.7956531900534939,-0.6054931634072835,1.0,0.0,0.0,0.0,1.0,0.0,0.0,0.0,1.0,-4.107947461307049e-06,0.0002529799239709973,-0.0003262731479480863,1.2184696791468346e-07,0.0,0.0,0.0,1.2184696791468346e-07,0.0,0.0,0.0,1.2184696791468346e-07,-0.31443384289741516,-0.09612233936786532,9.782818794250488,8.999999999999999e-08,0.0,0.0,0.0,8.999999999999999e-08,0.0,0.0,0.0,8.999999999999999e-08
1719006712.4232953,51891,1719006712,417002880,base_link,0.016758113474265687,-0.005775080050246306,-0.7956519888683113,-0.6054947017672542,1.0,0.0,0.0,0.0,1.0,0.0,0.0,0.0,1.0,-0.00024362403200939298,0.00015880720457062117,-0.0006229585269466043,1.2184696791468346e-07,0.0,0.0,0.0,1.2184696791468346e-07,0.0,0.0,0.0,1.2184696791468346e-07,-0.3321259319782257,-0.1094566434621799,9.798580169677734,8.999999999999999e-08,0.0,0.0,0.0,8.999999999999999e-08,0.0,0.0,0.0,8.999999999999999e-08
1719006712.429476,51892,1719006712,422002880,base_link,0.016756813507406928,-0.005774046135368774,-0.7956515568631141,-0.6054953023598455,1.0,0.0,0.0,0.0,1.0,0.0,0.0,0.0,1.0,-0.00013765774201601744,-0.00024821632541716104,-0.00042312889127060766,1.2184696791468346e-07,0.0,0.0,0.0,1.2184696791468346e-07,0.0,0.0,0.0,1.2184696791468346e-07,-0.3307432532310486,-0.09784316271543383,9.796175956726074,8.999999999999999e-08,0.0,0.0,0.0,8.999999999999999e-08,0.0,0.0,0.0,8.999999999999999e-08
1719006712.4362965,51893,1719006712,432002880,base_link,0.016756058486128527,-0.005772014196289393,-0.795652294432963,-0.6054943962026025,1.0,0.0,0.0,0.0,1.0,0.0,0.0,0.0,1.0,-7.261347491294146e-05,-0.0003972156555391848,9.367114398628479e-05,1.2184696791468346e-07,0.0,0.0,0.0,1.2184696791468346e-07,0.0,0.0,0.0,1.2184696791468346e-07,-0.3399004340171814,-0.09362542629241823,9.804083824157715,8.999999999999999e-08,0.0,0.0,0.0,8.999999999999999e-08,0.0,0.0,0.0,8.999999999999999e-08
1719006712.4419036,51894,1719006712,437002880,base_link,0.01675672954298216,-0.005771053379852247,-0.7956530846863726,-0.6054933530681019,1.0,0.0,0.0,0.0,1.0,0.0,0.0,0.0,1.0,-0.00021492870291695,-0.00018213051953352985,0.0003002434968948364,1.2184696791468346e-07,0.0,0.0,0.0,1.2184696791468346e-07,0.0,0.0,0.0,1.2184696791468346e-07,-0.32585716247558594,-0.11113432794809221,9.803853988647461,8.999999999999999e-08,0.0,0.0,0.0,8.999999999999999e-08,0.0,0.0,0.0,8.999999999999999e-08
1719006712.4489717,51895,1719006712,442002880,base_link,0.016758207646130327,-0.00577298653725543,-0.7956536009852668,-0.6054925838881166,1.0,0.0,0.0,0.0,1.0,0.0,0.0,0.0,1.0,0.0001110956072807312,0.0004640303959604353,0.00040242844261229033,1.2184696791468346e-07,0.0,0.0,0.0,1.2184696791468346e-07,0.0,0.0,0.0,1.2184696791468346e-07,-0.3491975665092468,-0.1054880917072284,9.804965019226074,8.999999999999999e-08,0.0,0.0,0.0,8.999999999999999e-08,0.0,0.0,0.0,8.999999999999999e-08
1719006712.454202,51896,1719006712,447002880,base_link,0.016758865861366056,-0.005772581203110766,-0.7956535693751304,-0.605492615498253,1.0,0.0,0.0,0.0,1.0,0.0,0.0,0.0,1.0,2.1559942979365587e-05,0.0003979577741120011,0.00047668674960732455,1.2184696791468346e-07,0.0,0.0,0.0,1.2184696791468346e-07,0.0,0.0,0.0,1.2184696791468346e-07,-0.3400944173336029,-0.12638233602046847,9.794736862182617,8.999999999999999e-08,0.0,0.0,0.0,8.999999999999999e-08,0.0,0.0,0.0,8.999999999999999e-08
1719006712.4570239,51897,1719006712,452002880,base_link,0.016757802641257917,-0.0057724485063924075,-0.7956541699677218,-0.6054918463182676,1.0,0.0,0.0,0.0,1.0,0.0,0.0,0.0,1.0,8.833000902086496e-05,0.00023006863193586471,0.0002800575457513332,1.2184696791468346e-07,0.0,0.0,0.0,1.2184696791468346e-07,0.0,0.0,0.0,1.2184696791468346e-07,-0.3208954930305481,-0.11479117721319079,9.799737930297852,8.999999999999999e-08,0.0,0.0,0.0,8.999999999999999e-08,0.0,0.0,0.0,8.999999999999999e-08
1719006712.4631946,51898,1719006712,457003392,base_link,0.016759239585374338,-0.005771783376439345,-0.7956535588384184,-0.605492626034965,1.0,0.0,0.0,0.0,1.0,0.0,0.0,0.0,1.0,-7.794995326548815e-06,-1.2400996638461963e-05,-0.0001239681732840836,1.2184696791468346e-07,0.0,0.0,0.0,1.2184696791468346e-07,0.0,0.0,0.0,1.2184696791468346e-07,-0.3310462534427643,-0.11617889255285144,9.790966987609863,8.999999999999999e-08,0.0,0.0,0.0,8.999999999999999e-08,0.0,0.0,0.0,8.999999999999999e-08
1719006712.4693418,51899,1719006712,462003392,base_link,0.016757802311985665,-0.005771634874652795,-0.7956540435271762,-0.6054919727588132,1.0,0.0,0.0,0.0,1.0,0.0,0.0,0.0,1.0,0.00010426412336528301,-8.249664097093046e-05,7.085502147674571e-06,1.2184696791468346e-07,0.0,0.0,0.0,1.2184696791468346e-07,0.0,0.0,0.0,1.2184696791468346e-07,-0.3237098157405853,-0.12223079055547595,9.799277305603027,8.999999999999999e-08,0.0,0.0,0.0,8.999999999999999e-08,0.0,0.0,0.0,8.999999999999999e-08
1719006712.475195,51900,1719006712,467003392,base_link,0.016758019302401044,-0.0057717497906694375,-0.7956536220586912,-0.6054924785209953,1.0,0.0,0.0,0.0,1.0,0.0,0.0,0.0,1.0,0.00010526878759264946,-0.00030260454514063895,-0.00013102250522933898,1.2184696791468346e-07,0.0,0.0,0.0,1.2184696791468346e-07,0.0,0.0,0.0,1.2184696791468346e-07,-0.31581130623817444,-0.10035983473062395,9.814376831054688,8.999999999999999e-08,0.0,0.0,0.0,8.999999999999999e-08,0.0,0.0,0.0,8.999999999999999e-08
1719006712.481353,51901,1719006712,477003392,base_link,0.01675841409983358,-0.005769655948406307,-0.7956528528787058,-0.6054936691694657,1.0,0.0,0.0,0.0,1.0,0.0,0.0,0.0,1.0,-7.157574873417616e-05,-0.00017611598013900223,-0.00022392309620045123,1.2184696791468346e-07,0.0,0.0,0.0,1.2184696791468346e-07,0.0,0.0,0.0,1.2184696791468346e-07,-0.31377968192100525,-0.09533036500215411,9.79775619506836,8.999999999999999e-08,0.0,0.0,0.0,8.999999999999999e-08,0.0,0.0,0.0,8.999999999999999e-08
1719006712.4886265,51902,1719006712,482003392,base_link,0.01676082799472759,-0.005767344786455542,-0.795653032002812,-0.6054934057516626,1.0,0.0,0.0,0.0,1.0,0.0,0.0,0.0,1.0,-0.0007320231525227427,0.00016376424173358828,-7.24281999282539e-05,1.2184696791468346e-07,0.0,0.0,0.0,1.2184696791468346e-07,0.0,0.0,0.0,1.2184696791468346e-07,-0.32592135667800903,-0.10969388484954713,9.805099487304688,8.999999999999999e-08,0.0,0.0,0.0,8.999999999999999e-08,0.0,0.0,0.0,8.999999999999999e-08
1719006712.4930143,51903,1719006712,487003392,base_link,0.016762475014542057,-0.005766514361830975,-0.7956525999976147,-0.6054937534631627,1.0,0.0,0.0,0.0,1.0,0.0,0.0,0.0,1.0,-0.0007767980569042265,0.0005149513017386198,-0.00011949098552577204,1.2184696791468346e-07,0.0,0.0,0.0,1.2184696791468346e-07,0.0,0.0,0.0,1.2184696791468346e-07,-0.33160728216171265,-0.12502186000347018,9.819536209106445,8.999999999999999e-08,0.0,0.0,0.0,8.999999999999999e-08,0.0,0.0,0.0,8.999999999999999e-08
1719006712.4991586,51904,1719006712,492003392,base_link,0.01676422015748821,-0.005765875573658231,-0.7956524103367965,-0.6054940274176781,1.0,0.0,0.0,0.0,1.0,0.0,0.0,0.0,1.0,-0.0005052677588537335,0.0002043412096099928,-7.072108564898374e-05,1.2184696791468346e-07,0.0,0.0,0.0,1.2184696791468346e-07,0.0,0.0,0.0,1.2184696791468346e-07,-0.33379361033439636,-0.10493120551109193,9.805781364440918,8.999999999999999e-08,0.0,0.0,0.0,8.999999999999999e-08,0.0,0.0,0.0,8.999999999999999e-08
1719006712.5062113,51905,1719006712,497003392,base_link,0.016763289963370686,-0.005765101454589098,-0.795651957258175,-0.6054946490836937,1.0,0.0,0.0,0.0,1.0,0.0,0.0,0.0,1.0,-0.00019416853319853544,-6.0255217249505235e-05,-8.702412014827131e-05,1.2184696791468346e-07,0.0,0.0,0.0,1.2184696791468346e-07,0.0,0.0,0.0,1.2184696791468346e-07,-0.33776989579200745,-0.10626664012670396,9.812529563903809,8.999999999999999e-08,0.0,0.0,0.0,8.999999999999999e-08,0.0,0.0,0.0,8.999999999999999e-08
1719006712.5110319,51906,1719006712,507003392,base_link,0.01676563504036361,-0.005763962831134797,-0.7956516938403718,-0.6054949125014968,1.0,0.0,0.0,0.0,1.0,0.0,0.0,0.0,1.0,-0.00023226940538734198,0.00023297693405766037,-0.00011530210031196478,1.2184696791468346e-07,0.0,0.0,0.0,1.2184696791468346e-07,0.0,0.0,0.0,1.2184696791468346e-07,-0.33447760343551636,-0.10975105315446734,9.800365447998047,8.999999999999999e-08,0.0,0.0,0.0,8.999999999999999e-08,0.0,0.0,0.0,8.999999999999999e-08
1719006712.5181668,51907,1719006712,512003392,base_link,0.016763718017300873,-0.005762052393517138,-0.7956517570606445,-0.605494933574921,1.0,0.0,0.0,0.0,1.0,0.0,0.0,0.0,1.0,-0.00020880368538200855,-0.0003405207535251975,-2.297456376254517e-06,1.2184696791468346e-07,0.0,0.0,0.0,1.2184696791468346e-07,0.0,0.0,0.0,1.2184696791468346e-07,-0.33061087131500244,-0.11483075469732165,9.798585891723633,8.999999999999999e-08,0.0,0.0,0.0,8.999999999999999e-08,0.0,0.0,0.0,8.999999999999999e-08
1719006712.523346,51908,1719006712,517003392,base_link,0.016762811530785633,-0.0057624215077138625,-0.7956514936428414,-0.6054952812864213,1.0,0.0,0.0,0.0,1.0,0.0,0.0,0.0,1.0,9.523314656689763e-05,-0.0003871252993121743,-0.00015370908658951515,1.2184696791468346e-07,0.0,0.0,0.0,1.2184696791468346e-07,0.0,0.0,0.0,1.2184696791468346e-07,-0.3293803632259369,-0.11644230037927508,9.789680480957031,8.999999999999999e-08,0.0,0.0,0.0,8.999999999999999e-08,0.0,0.0,0.0,8.999999999999999e-08
1719006712.5294423,51909,1719006712,522003392,base_link,0.016763585649854768,-0.0057609335263980755,-0.795650966807235,-0.6054959767094217,1.0,0.0,0.0,0.0,1.0,0.0,0.0,0.0,1.0,-0.0002920303959399462,-0.00023474276531487706,-0.00021292074234224853,1.2184696791468346e-07,0.0,0.0,0.0,1.2184696791468346e-07,0.0,0.0,0.0,1.2184696791468346e-07,-0.32355037331581116,-0.10507096350192903,9.803985595703125,8.999999999999999e-08,0.0,0.0,0.0,8.999999999999999e-08,0.0,0.0,0.0,8.999999999999999e-08
1719006712.535506,51910,1719006712,532003392,base_link,0.016764019301413274,-0.005759693816361798,-0.7956521890658418,-0.6054943329823298,1.0,0.0,0.0,0.0,1.0,0.0,0.0,0.0,1.0,-0.00022236676886677742,5.9029451222158996e-05,0.00021771807223558426,1.2184696791468346e-07,0.0,0.0,0.0,1.2184696791468346e-07,0.0,0.0,0.0,1.2184696791468346e-07,-0.32672563195228577,-0.11450270563363908,9.809285163879395,8.999999999999999e-08,0.0,0.0,0.0,8.999999999999999e-08,0.0,0.0,0.0,8.999999999999999e-08
1719006712.5424616,51911,1719006712,537003392,base_link,0.016763635699237375,-0.005757406362013321,-0.7956506085590226,-0.6054965878387251,1.0,0.0,0.0,0.0,1.0,0.0,0.0,0.0,1.0,-0.00029393756994977593,-0.0003427335468586534,-0.0001822386984713375,1.2184696791468346e-07,0.0,0.0,0.0,1.2184696791468346e-07,0.0,0.0,0.0,1.2184696791468346e-07,-0.3507639169692993,-0.11501649767160296,9.793567657470703,8.999999999999999e-08,0.0,0.0,0.0,8.999999999999999e-08,0.0,0.0,0.0,8.999999999999999e-08
1719006712.5513992,51912,1719006712,542003392,base_link,0.016763514527047906,-0.005756774159285658,-0.7956498815258858,-0.605497567752953,1.0,0.0,0.0,0.0,1.0,0.0,0.0,0.0,1.0,-6.31253351457417e-05,-0.0003013961832039059,-0.00029714326956309373,1.2184696791468346e-07,0.0,0.0,0.0,1.2184696791468346e-07,0.0,0.0,0.0,1.2184696791468346e-07,-0.3393843472003937,-0.11705648154020189,9.803799629211426,8.999999999999999e-08,0.0,0.0,0.0,8.999999999999999e-08,0.0,0.0,0.0,8.999999999999999e-08
1719006712.5539634,51913,1719006712,547003392,base_link,0.016761522759183512,-0.0057576437673084475,-0.7956511986149017,-0.6054958291954519,1.0,0.0,0.0,0.0,1.0,0.0,0.0,0.0,1.0,0.0002704623620957136,-0.00034077645977959037,3.0640512704853415e-07,1.2184696791468346e-07,0.0,0.0,0.0,1.2184696791468346e-07,0.0,0.0,0.0,1.2184696791468346e-07,-0.3329415023326874,-0.10669287294149278,9.8099365234375,8.999999999999999e-08,0.0,0.0,0.0,8.999999999999999e-08,0.0,0.0,0.0,8.999999999999999e-08
1719006712.5570438,51914,1719006712,552003392,base_link,0.016760126644826588,-0.0057580388940132385,-0.7956511037844926,-0.605495924025861,1.0,0.0,0.0,0.0,1.0,0.0,0.0,0.0,1.0,0.0005181817105039954,-0.0003277507785242051,0.0001083102542907,1.2184696791468346e-07,0.0,0.0,0.0,1.2184696791468346e-07,0.0,0.0,0.0,1.2184696791468346e-07,-0.3363499343395233,-0.10868091881275056,9.803506851196289,8.999999999999999e-08,0.0,0.0,0.0,8.999999999999999e-08,0.0,0.0,0.0,8.999999999999999e-08
1719006712.563484,51915,1719006712,557002880,base_link,0.016758372940801833,-0.005760946368015982,-0.7956505980223104,-0.6054965983754372,1.0,0.0,0.0,0.0,1.0,0.0,0.0,0.0,1.0,0.0009949393570423126,-0.00017076038056984547,-0.0001596650690771639,1.2184696791468346e-07,0.0,0.0,0.0,1.2184696791468346e-07,0.0,0.0,0.0,1.2184696791468346e-07,-0.33078381419181824,-0.11431536823511004,9.796813011169434,8.999999999999999e-08,0.0,0.0,0.0,8.999999999999999e-08,0.0,0.0,0.0,8.999999999999999e-08
1719006712.569539,51916,1719006712,562002880,base_link,0.016757754567508835,-0.005761857135070521,-0.7956498183056131,-0.6054976309732257,1.0,0.0,0.0,0.0,1.0,0.0,0.0,0.0,1.0,0.0008408526191487908,0.00019351673836354164,-0.0001630881160963327,1.2184696791468346e-07,0.0,0.0,0.0,1.2184696791468346e-07,0.0,0.0,0.0,1.2184696791468346e-07,-0.3284679055213928,-0.10525201261043429,9.799859046936035,8.999999999999999e-08,0.0,0.0,0.0,8.999999999999999e-08,0.0,0.0,0.0,8.999999999999999e-08
1719006712.5755122,51917,1719006712,567002880,base_link,0.016759057497817878,-0.005764589765506396,-0.7956513461288716,-0.605495681681482,1.0,0.0,0.0,0.0,1.0,0.0,0.0,0.0,1.0,0.0005319879855960608,0.0006326012662611902,0.0003209499409422278,1.2184696791468346e-07,0.0,0.0,0.0,1.2184696791468346e-07,0.0,0.0,0.0,1.2184696791468346e-07,-0.3291356563568115,-0.11499576270580171,9.80736255645752,8.999999999999999e-08,0.0,0.0,0.0,8.999999999999999e-08,0.0,0.0,0.0,8.999999999999999e-08
1719006712.5831554,51918,1719006712,577002880,base_link,0.016758872117538882,-0.005763157760473788,-0.7956520520885841,-0.6054945542532845,1.0,0.0,0.0,0.0,1.0,0.0,0.0,0.0,1.0,4.161079414188862e-05,0.00012063421308994297,0.00038536498323082924,1.2184696791468346e-07,0.0,0.0,0.0,1.2184696791468346e-07,0.0,0.0,0.0,1.2184696791468346e-07,-0.32009342312812805,-0.11130109429359315,9.810397148132324,8.999999999999999e-08,0.0,0.0,0.0,8.999999999999999e-08,0.0,0.0,0.0,8.999999999999999e-08
1719006712.5894144,51919,1719006712,582002880,base_link,0.016756842812637535,-0.00576420978532529,-0.7956526316077511,-0.6054939747341175,1.0,0.0,0.0,0.0,1.0,0.0,0.0,0.0,1.0,0.00017000699881464243,-9.191100252792235e-05,0.0003249598667025566,1.2184696791468346e-07,0.0,0.0,0.0,1.2184696791468346e-07,0.0,0.0,0.0,1.2184696791468346e-07,-0.31691980361938477,-0.10713733732700229,9.780313491821289,8.999999999999999e-08,0.0,0.0,0.0,8.999999999999999e-08,0.0,0.0,0.0,8.999999999999999e-08
1719006712.5957844,51920,1719006712,587002880,base_link,0.016759105571566964,-0.0057628531836388455,-0.7956526421444633,-0.6054937956100113,1.0,0.0,0.0,0.0,1.0,0.0,0.0,0.0,1.0,-0.00021302991081029177,-7.312319939956065e-05,0.00032914348412305117,1.2184696791468346e-07,0.0,0.0,0.0,1.2184696791468346e-07,0.0,0.0,0.0,1.2184696791468346e-07,-0.3273656964302063,-0.11377034336328386,9.81013011932373,8.999999999999999e-08,0.0,0.0,0.0,8.999999999999999e-08,0.0,0.0,0.0,8.999999999999999e-08
1719006712.6015353,51921,1719006712,597002880,base_link,0.016758548772185463,-0.005758307580172494,-0.7956533586408879,-0.6054929948198895,1.0,0.0,0.0,0.0,1.0,0.0,0.0,0.0,1.0,-0.0005222595063969493,-0.00036292569711804385,0.00022885616635903722,1.2184696791468346e-07,0.0,0.0,0.0,1.2184696791468346e-07,0.0,0.0,0.0,1.2184696791468346e-07,-0.34190431237220764,-0.10494611412286639,9.788594245910645,8.999999999999999e-08,0.0,0.0,0.0,8.999999999999999e-08,0.0,0.0,0.0,8.999999999999999e-08
1719006712.6077046,51922,1719006712,602002880,base_link,0.01676035285486508,-0.0057565561810535145,-0.7956538327929337,-0.6054923520804497,1.0,0.0,0.0,0.0,1.0,0.0,0.0,0.0,1.0,-0.000790485879406333,-0.00023724167840555308,0.0002660068566910923,1.2184696791468346e-07,0.0,0.0,0.0,1.2184696791468346e-07,0.0,0.0,0.0,1.2184696791468346e-07,-0.32495957612991333,-0.1189626082777965,9.790785789489746,8.999999999999999e-08,0.0,0.0,0.0,8.999999999999999e-08,0.0,0.0,0.0,8.999999999999999e-08
1719006712.613302,51923,1719006712,607002880,base_link,0.016762613308888733,-0.005755178176670561,-0.7956532322003423,-0.6054931212604351,1.0,0.0,0.0,0.0,1.0,0.0,0.0,0.0,1.0,-0.0008762380457483232,8.067183807725087e-05,-1.7048732843250046e-05,1.2184696791468346e-07,0.0,0.0,0.0,1.2184696791468346e-07,0.0,0.0,0.0,1.2184696791468346e-07,-0.3421906530857086,-0.11060158908367038,9.799528121948242,8.999999999999999e-08,0.0,0.0,0.0,8.999999999999999e-08,0.0,0.0,0.0,8.999999999999999e-08
1719006712.6196122,51924,1719006712,612002880,base_link,0.01676270550511985,-0.005754008601624384,-0.7956533902510243,-0.6054929632097531,1.0,0.0,0.0,0.0,1.0,0.0,0.0,0.0,1.0,-0.00021282641682773829,0.00011138459376525134,-2.213590778410436e-05,1.2184696791468346e-07,0.0,0.0,0.0,1.2184696791468346e-07,0.0,0.0,0.0,1.2184696791468346e-07,-0.3233415186405182,-0.10468754172325015,9.798752784729004,8.999999999999999e-08,0.0,0.0,0.0,8.999999999999999e-08,0.0,0.0,0.0,8.999999999999999e-08
1719006712.6261647,51925,1719006712,617002880,base_link,0.01676110425414869,-0.005754845940966285,-0.7956538749397821,-0.6054923099336013,1.0,0.0,0.0,0.0,1.0,0.0,0.0,0.0,1.0,0.0003623382654041052,-0.00010405668581370262,0.00020261819008737803,1.2184696791468346e-07,0.0,0.0,0.0,1.2184696791468346e-07,0.0,0.0,0.0,1.2184696791468346e-07,-0.33125296235084534,-0.1071321815252292,9.80929946899414,8.999999999999999e-08,0.0,0.0,0.0,8.999999999999999e-08,0.0,0.0,0.0,8.999999999999999e-08
1719006712.6301696,51926,1719006712,622002880,base_link,0.0167592942445685,-0.005756050089599131,-0.7956539381600549,-0.6054922467133285,1.0,0.0,0.0,0.0,1.0,0.0,0.0,0.0,1.0,0.0007001847261562943,-2.75181810138747e-05,7.366063073277473e-05,1.2184696791468346e-07,0.0,0.0,0.0,1.2184696791468346e-07,0.0,0.0,0.0,1.2184696791468346e-07,-0.3478357493877411,-0.10770751535892367,9.80024242401123,8.999999999999999e-08,0.0,0.0,0.0,8.999999999999999e-08,0.0,0.0,0.0,8.999999999999999e-08
1719006712.6355336,51927,1719006712,627002880,base_link,0.016760787823512605,-0.005756489997330463,-0.7956547389501767,-0.6054911930421157,1.0,0.0,0.0,0.0,1.0,0.0,0.0,0.0,1.0,0.0003908678190782666,0.00021867027680855247,0.00016754475655034182,1.2184696791468346e-07,0.0,0.0,0.0,1.2184696791468346e-07,0.0,0.0,0.0,1.2184696791468346e-07,-0.34027597308158875,-0.11055663973092913,9.787753105163574,8.999999999999999e-08,0.0,0.0,0.0,8.999999999999999e-08,0.0,0.0,0.0,8.999999999999999e-08
1719006712.6415968,51928,1719006712,637002880,base_link,0.016761194804018536,-0.005754062602274038,-0.7956558663783744,-0.60548972843913,1.0,0.0,0.0,0.0,1.0,0.0,0.0,0.0,1.0,-0.00018387730233371258,7.957803609315311e-05,0.00043438770808279514,1.2184696791468346e-07,0.0,0.0,0.0,1.2184696791468346e-07,0.0,0.0,0.0,1.2184696791468346e-07,-0.32204166054725647,-0.11353547871112703,9.80419635772705,8.999999999999999e-08,0.0,0.0,0.0,8.999999999999999e-08,0.0,0.0,0.0,8.999999999999999e-08
1719006712.6475565,51929,1719006712,642002880,base_link,0.016760859604863974,-0.00575636026406239,-0.7956560560391926,-0.6054894544846146,1.0,0.0,0.0,0.0,1.0,0.0,0.0,0.0,1.0,7.407198427245021e-05,9.286896965932106e-05,0.00039018288953229785,1.2184696791468346e-07,0.0,0.0,0.0,1.2184696791468346e-07,0.0,0.0,0.0,1.2184696791468346e-07,-0.3262914717197418,-0.11254352331161378,9.803062438964844,8.999999999999999e-08,0.0,0.0,0.0,8.999999999999999e-08,0.0,0.0,0.0,8.999999999999999e-08
1719006712.6533408,51930,1719006712,647002880,base_link,0.01676148028306275,-0.00575496777170026,-0.7956564248241171,-0.6054890014059932,1.0,0.0,0.0,0.0,1.0,0.0,0.0,0.0,1.0,2.3468455765396357e-05,6.219279021024708e-05,0.000291228003334254,1.2184696791468346e-07,0.0,0.0,0.0,1.2184696791468346e-07,0.0,0.0,0.0,1.2184696791468346e-07,-0.3355080485343933,-0.10556771606206775,9.799664497375488,8.999999999999999e-08,0.0,0.0,0.0,8.999999999999999e-08,0.0,0.0,0.0,8.999999999999999e-08
1719006712.659525,51931,1719006712,652003136,base_link,0.01676187145850049,-0.005754892697626351,-0.7956558558416622,-0.6054895703884481,1.0,0.0,0.0,0.0,1.0,0.0,0.0,0.0,1.0,-1.7291924450546503e-05,0.00012024477473460136,-9.547467925585808e-05,1.2184696791468346e-07,0.0,0.0,0.0,1.2184696791468346e-07,0.0,0.0,0.0,1.2184696791468346e-07,-0.31739839911460876,-0.10758232325315356,9.78551197052002,8.999999999999999e-08,0.0,0.0,0.0,8.999999999999999e-08,0.0,0.0,0.0,8.999999999999999e-08
1719006712.6655655,51932,1719006712,662003136,base_link,0.016762684760967848,-0.005754901258704955,-0.7956555397402983,-0.6054901393709029,1.0,0.0,0.0,0.0,1.0,0.0,0.0,0.0,1.0,-4.6879868023097515e-05,0.00020278611918911335,-0.0002362390223424882,1.2184696791468346e-07,0.0,0.0,0.0,1.2184696791468346e-07,0.0,0.0,0.0,1.2184696791468346e-07,-0.32035523653030396,-0.10989872366189836,9.810336112976074,8.999999999999999e-08,0.0,0.0,0.0,8.999999999999999e-08,0.0,0.0,0.0,8.999999999999999e-08
1719006712.6711142,51933,1719006712,667003136,base_link,0.016761940276401575,-0.005753743866732174,-0.7956561403328897,-0.6054893701909175,1.0,0.0,0.0,0.0,1.0,0.0,0.0,0.0,1.0,-0.00018397520761936903,-0.00010478247713763267,-4.735391121357678e-05,1.2184696791468346e-07,0.0,0.0,0.0,1.2184696791468346e-07,0.0,0.0,0.0,1.2184696791468346e-07,-0.31687137484550476,-0.10026706010103106,9.792301177978516,8.999999999999999e-08,0.0,0.0,0.0,8.999999999999999e-08,0.0,0.0,0.0,8.999999999999999e-08
1719006712.6773987,51934,1719006712,672003136,base_link,0.016762738103072994,-0.005754948015365022,-0.7956543912386764,-0.6054916250473129,1.0,0.0,0.0,0.0,1.0,0.0,0.0,0.0,1.0,7.218780228868127e-05,0.00023760921612847594,-0.0002054432989098132,1.2184696791468346e-07,0.0,0.0,0.0,1.2184696791468346e-07,0.0,0.0,0.0,1.2184696791468346e-07,-0.332538366317749,-0.1087891086935985,9.80312728881836,8.999999999999999e-08,0.0,0.0,0.0,8.999999999999999e-08,0.0,0.0,0.0,8.999999999999999e-08
1719006712.6832633,51935,1719006712,677003136,base_link,0.016763629772336804,-0.005755007284370739,-0.7956556029605711,-0.6054899918569332,1.0,0.0,0.0,0.0,1.0,0.0,0.0,0.0,1.0,0.00010635278886184096,8.998806879390037e-05,0.0004018151666969061,1.2184696791468346e-07,0.0,0.0,0.0,1.2184696791468346e-07,0.0,0.0,0.0,1.2184696791468346e-07,-0.32636559009552,-0.11511006951331973,9.793387413024902,8.999999999999999e-08,0.0,0.0,0.0,8.999999999999999e-08,0.0,0.0,0.0,8.999999999999999e-08
1719006712.6893518,51936,1719006712,682003136,base_link,0.01676113257156253,-0.005753276629403761,-0.7956563405304201,-0.6054891699933872,1.0,0.0,0.0,0.0,1.0,0.0,0.0,0.0,1.0,0.0002826536074280739,-0.000244918221142143,0.00014284084318205717,1.2184696791468346e-07,0.0,0.0,0.0,1.2184696791468346e-07,0.0,0.0,0.0,1.2184696791468346e-07,-0.33971720933914185,-0.10717933624982715,9.79708194732666,8.999999999999999e-08,0.0,0.0,0.0,8.999999999999999e-08,0.0,0.0,0.0,8.999999999999999e-08
1719006712.6955504,51937,1719006712,692003136,base_link,0.016762545149532154,-0.005753615779825372,-0.7956548970008587,-0.6054910349914339,1.0,0.0,0.0,0.0,1.0,0.0,0.0,0.0,1.0,0.00016131310258060694,-9.359791874885789e-07,-0.00018741170060820878,1.2184696791468346e-07,0.0,0.0,0.0,1.2184696791468346e-07,0.0,0.0,0.0,1.2184696791468346e-07,-0.32859233021736145,-0.10461440682411074,9.800015449523926,8.999999999999999e-08,0.0,0.0,0.0,8.999999999999999e-08,0.0,0.0,0.0,8.999999999999999e-08
1719006712.7022555,51938,1719006712,697003136,base_link,0.01676218393786953,-0.005751651012285805,-0.795655181492086,-0.6054904976191152,1.0,0.0,0.0,0.0,1.0,0.0,0.0,0.0,1.0,-0.0004051888536196202,-0.0001337530848104507,-0.00017581431893631813,1.2184696791468346e-07,0.0,0.0,0.0,1.2184696791468346e-07,0.0,0.0,0.0,1.2184696791468346e-07,-0.3227539360523224,-0.10834337770938753,9.811332702636719,8.999999999999999e-08,0.0,0.0,0.0,8.999999999999999e-08,0.0,0.0,0.0,8.999999999999999e-08
1719006712.7084723,51939,1719006712,702003136,base_link,0.016760999874844175,-0.005751188714041201,-0.7956537379625245,-0.605492615498253,1.0,0.0,0.0,0.0,1.0,0.0,0.0,0.0,1.0,-0.0002754366141743958,-0.00035163862048648303,-0.0003848393680527806,1.2184696791468346e-07,0.0,0.0,0.0,1.2184696791468346e-07,0.0,0.0,0.0,1.2184696791468346e-07,-0.3213042616844177,-0.10254590213298677,9.80282211303711,8.999999999999999e-08,0.0,0.0,0.0,8.999999999999999e-08,0.0,0.0,0.0,8.999999999999999e-08
1719006712.7132013,51940,1719006712,707003136,base_link,0.016762332768928332,-0.005748691513266932,-0.7956548232438737,-0.6054910244547216,1.0,0.0,0.0,0.0,1.0,0.0,0.0,0.0,1.0,-0.00042392619070596993,7.291833753697577e-05,0.0002651703543961048,1.2184696791468346e-07,0.0,0.0,0.0,1.2184696791468346e-07,0.0,0.0,0.0,1.2184696791468346e-07,-0.32573962211608887,-0.11476901918649553,9.812483787536621,8.999999999999999e-08,0.0,0.0,0.0,8.999999999999999e-08,0.0,0.0,0.0,8.999999999999999e-08
1719006712.7190688,51941,1719006712,712003136,base_link,0.016763743700536685,-0.005750992138505568,-0.7956552447123588,-0.6054905186925396,1.0,0.0,0.0,0.0,1.0,0.0,0.0,0.0,1.0,-4.459568299353123e-05,0.00027530288207344716,0.00042933062650263304,1.2184696791468346e-07,0.0,0.0,0.0,1.2184696791468346e-07,0.0,0.0,0.0,1.2184696791468346e-07,-0.3314344882965088,-0.11419907212257266,9.801382064819336,8.999999999999999e-08,0.0,0.0,0.0,8.999999999999999e-08,0.0,0.0,0.0,8.999999999999999e-08
1719006712.7303648,51942,1719006712,722003136,base_link,0.016762452624028784,-0.005750889734834576,-0.7956548127071617,-0.6054911192851309,1.0,0.0,0.0,0.0,1.0,0.0,0.0,0.0,1.0,0.00023147137835621834,9.50071553234011e-05,-6.614136509597418e-07,1.2184696791468346e-07,0.0,0.0,0.0,1.2184696791468346e-07,0.0,0.0,0.0,1.2184696791468346e-07,-0.3309401571750641,-0.11233002692460894,9.789777755737305,8.999999999999999e-08,0.0,0.0,0.0,8.999999999999999e-08,0.0,0.0,0.0,8.999999999999999e-08
1719006712.7323837,51943,1719006712,727003136,base_link,0.016763426940628344,-0.0057519516378536995,-0.7956557188644046,-0.6054897073657057,1.0,0.0,0.0,0.0,1.0,0.0,0.0,0.0,1.0,0.00013900210615247488,0.0003157320898026228,0.00014591845683753488,1.2184696791468346e-07,0.0,0.0,0.0,1.2184696791468346e-07,0.0,0.0,0.0,1.2184696791468346e-07,-0.33943331241607666,-0.11762190610170244,9.820707321166992,8.999999999999999e-08,0.0,0.0,0.0,8.999999999999999e-08,0.0,0.0,0.0,8.999999999999999e-08
1719006712.740734,51944,1719006712,732003136,base_link,0.016764292268111835,-0.005750741233048028,-0.7956547284134646,-0.6054912035788279,1.0,0.0,0.0,0.0,1.0,0.0,0.0,0.0,1.0,-0.0002522229333408177,7.011699926806612e-05,-0.0001375633291900158,1.2184696791468346e-07,0.0,0.0,0.0,1.2184696791468346e-07,0.0,0.0,0.0,1.2184696791468346e-07,-0.324161171913147,-0.10381916910409808,9.800494194030762,8.999999999999999e-08,0.0,0.0,0.0,8.999999999999999e-08,0.0,0.0,0.0,8.999999999999999e-08
1719006712.7437088,51945,1719006712,737003136,base_link,0.016762730200538898,-0.005749816636558819,-0.7956548548540101,-0.6054909928445853,1.0,0.0,0.0,0.0,1.0,0.0,0.0,0.0,1.0,-2.49813892878592e-05,-0.00045981688890606165,-0.00014289721730165178,1.2184696791468346e-07,0.0,0.0,0.0,1.2184696791468346e-07,0.0,0.0,0.0,1.2184696791468346e-07,-0.3353896737098694,-0.09764540195464967,9.809918403625488,8.999999999999999e-08,0.0,0.0,0.0,8.999999999999999e-08,0.0,0.0,0.0,8.999999999999999e-08
1719006712.7501307,51946,1719006712,747003136,base_link,0.01676221456018915,-0.005747632244425841,-0.7956546335830553,-0.605491382702934,1.0,0.0,0.0,0.0,1.0,0.0,0.0,0.0,1.0,-8.090597111731768e-05,-0.000460295646917075,-0.0002568424970377236,1.2184696791468346e-07,0.0,0.0,0.0,1.2184696791468346e-07,0.0,0.0,0.0,1.2184696791468346e-07,-0.3307059705257416,-0.11255598813295245,9.799478530883789,8.999999999999999e-08,0.0,0.0,0.0,8.999999999999999e-08,0.0,0.0,0.0,8.999999999999999e-08
1719006712.7570326,51947,1719006712,752003136,base_link,0.016763209291668458,-0.005746395168567595,-0.795654601972919,-0.6054914143130704,1.0,0.0,0.0,0.0,1.0,0.0,0.0,0.0,1.0,-0.00041847856482490897,2.832811151165515e-05,-1.97758199647069e-05,1.2184696791468346e-07,0.0,0.0,0.0,1.2184696791468346e-07,0.0,0.0,0.0,1.2184696791468346e-07,-0.3200238347053528,-0.09299636632203936,9.801209449768066,8.999999999999999e-08,0.0,0.0,0.0,8.999999999999999e-08,0.0,0.0,0.0,8.999999999999999e-08
1719006712.7629108,51948,1719006712,757003136,base_link,0.016763959044590795,-0.00574552687763382,-0.7956533270307516,-0.605492942136329,1.0,0.0,0.0,0.0,1.0,0.0,0.0,0.0,1.0,-0.00038778295856900513,0.00012046250776620578,-0.0003217699995730072,1.2184696791468346e-07,0.0,0.0,0.0,1.2184696791468346e-07,0.0,0.0,0.0,1.2184696791468346e-07,-0.3341517746448517,-0.1235860064625728,9.807306289672852,8.999999999999999e-08,0.0,0.0,0.0,8.999999999999999e-08,0.0,0.0,0.0,8.999999999999999e-08
1719006712.766465,51949,1719006712,762003136,base_link,0.016764066058073342,-0.005745649037640052,-0.7956541172841611,-0.6054920675892222,1.0,0.0,0.0,0.0,1.0,0.0,0.0,0.0,1.0,-0.0002848225412890315,0.00011645618360489604,-0.0002483722928445786,1.2184696791468346e-07,0.0,0.0,0.0,1.2184696791468346e-07,0.0,0.0,0.0,1.2184696791468346e-07,-0.3202321529388428,-0.1065795198082912,9.800399780273438,8.999999999999999e-08,0.0,0.0,0.0,8.999999999999999e-08,0.0,0.0,0.0,8.999999999999999e-08
1719006712.7719138,51950,1719006712,767003136,base_link,0.01676497517876661,-0.0057461834465082785,-0.7956545598260705,-0.6054912878725248,1.0,0.0,0.0,0.0,1.0,0.0,0.0,0.0,1.0,-8.452124893665314e-05,0.00015323386469390246,0.000253455713391304,1.2184696791468346e-07,0.0,0.0,0.0,1.2184696791468346e-07,0.0,0.0,0.0,1.2184696791468346e-07,-0.3213205635547638,-0.11170893162488818,9.794373512268066,8.999999999999999e-08,0.0,0.0,0.0,8.999999999999999e-08,0.0,0.0,0.0,8.999999999999999e-08
1719006712.7779775,51951,1719006712,772003136,base_link,0.016766094045885676,-0.00574725358133375,-0.7956548232438737,-0.6054909401610247,1.0,0.0,0.0,0.0,1.0,0.0,0.0,0.0,1.0,6.309169111773372e-05,0.0003190816496498883,0.00016479077748954293,1.2184696791468346e-07,0.0,0.0,0.0,1.2184696791468346e-07,0.0,0.0,0.0,1.2184696791468346e-07,-0.34341326355934143,-0.10203788429498552,9.807150840759277,8.999999999999999e-08,0.0,0.0,0.0,8.999999999999999e-08,0.0,0.0,0.0,8.999999999999999e-08
1719006712.7839687,51952,1719006712,777003136,base_link,0.01676479210339339,-0.005747193653783525,-0.7956532322003425,-0.6054932055541321,1.0,0.0,0.0,0.0,1.0,0.0,0.0,0.0,1.0,0.00025105569511651993,4.099493526155125e-05,-0.00030562831670977175,1.2184696791468346e-07,0.0,0.0,0.0,1.2184696791468346e-07,0.0,0.0,0.0,1.2184696791468346e-07,-0.3312191665172577,-0.0910189375281322,9.794593811035156,8.999999999999999e-08,0.0,0.0,0.0,8.999999999999999e-08,0.0,0.0,0.0,8.999999999999999e-08
1719006712.790117,51953,1719006712,782003136,base_link,0.016764899446148195,-0.005747378704790268,-0.7956537590359488,-0.6054923415437377,1.0,0.0,0.0,0.0,1.0,0.0,0.0,0.0,1.0,0.00021700561046600342,-2.5171641027554917e-05,-0.00039801723323762417,1.2184696791468346e-07,0.0,0.0,0.0,1.2184696791468346e-07,0.0,0.0,0.0,1.2184696791468346e-07,-0.3391837179660797,-0.10509740561246753,9.79875373840332,8.999999999999999e-08,0.0,0.0,0.0,8.999999999999999e-08,0.0,0.0,0.0,8.999999999999999e-08
1719006712.7963428,51954,1719006712,792003136,base_link,0.016764554039553757,-0.00574517949540586,-0.7956540751373126,-0.6054921097360708,1.0,0.0,0.0,0.0,1.0,0.0,0.0,0.0,1.0,-0.000198529742192477,-0.00020772457355633378,6.191816646605733e-05,1.2184696791468346e-07,0.0,0.0,0.0,1.2184696791468346e-07,0.0,0.0,0.0,1.2184696791468346e-07,-0.3350483775138855,-0.08672341704368472,9.79955768585205,8.999999999999999e-08,0.0,0.0,0.0,8.999999999999999e-08,0.0,0.0,0.0,8.999999999999999e-08
1719006712.802516,51955,1719006712,797003136,base_link,0.016762400928284907,-0.005744495596934319,-0.7956545492893584,-0.6054915512903281,1.0,0.0,0.0,0.0,1.0,0.0,0.0,0.0,1.0,1.912383595481515e-05,-0.0003759363899007439,0.00043010851368308073,1.2184696791468346e-07,0.0,0.0,0.0,1.2184696791468346e-07,0.0,0.0,0.0,1.2184696791468346e-07,-0.327997088432312,-0.10587574541568635,9.826943397521973,8.999999999999999e-08,0.0,0.0,0.0,8.999999999999999e-08,0.0,0.0,0.0,8.999999999999999e-08
1719006712.8081977,51956,1719006712,802003136,base_link,0.016761056838944115,-0.005745544658335536,-0.7956562562367231,-0.6054892542870842,1.0,0.0,0.0,0.0,1.0,0.0,0.0,0.0,1.0,0.0002641257597133517,-0.00020460478845052413,0.0006221496732905507,1.2184696791468346e-07,0.0,0.0,0.0,1.2184696791468346e-07,0.0,0.0,0.0,1.2184696791468346e-07,-0.3390473425388336,-0.10146649926900744,9.801427841186523,8.999999999999999e-08,0.0,0.0,0.0,8.999999999999999e-08,0.0,0.0,0.0,8.999999999999999e-08
1719006712.817702,51957,1719006712,807003136,base_link,0.016761706163828986,-0.005743868004018211,-0.7956552341756467,-0.6054906135229486,1.0,0.0,0.0,0.0,1.0,0.0,0.0,0.0,1.0,0.0001004251535050571,1.880156924016772e-05,-0.00014253941481001675,1.2184696791468346e-07,0.0,0.0,0.0,1.2184696791468346e-07,0.0,0.0,0.0,1.2184696791468346e-07,-0.3395443260669708,-0.10829409211873889,9.792174339294434,8.999999999999999e-08,0.0,0.0,0.0,8.999999999999999e-08,0.0,0.0,0.0,8.999999999999999e-08
1719006712.8193552,51958,1719006712,812003136,base_link,0.01676262878468467,-0.005744921016686477,-0.7956538117195094,-0.6054924574475711,1.0,0.0,0.0,0.0,1.0,0.0,0.0,0.0,1.0,-0.00010591157479211688,0.00028179248329252,-0.0006342754932120442,1.2184696791468346e-07,0.0,0.0,0.0,1.2184696791468346e-07,0.0,0.0,0.0,1.2184696791468346e-07,-0.325629860162735,-0.11303715407848239,9.787796974182129,8.999999999999999e-08,0.0,0.0,0.0,8.999999999999999e-08,0.0,0.0,0.0,8.999999999999999e-08
1719006712.8250935,51959,1719006712,822003136,base_link,0.016762322232216204,-0.0057428251987898206,-0.7956535377649941,-0.6054927314020864,1.0,0.0,0.0,0.0,1.0,0.0,0.0,0.0,1.0,-0.0001441926578991115,-1.3293174561113572e-06,-0.0003692816535476595,1.2184696791468346e-07,0.0,0.0,0.0,1.2184696791468346e-07,0.0,0.0,0.0,1.2184696791468346e-07,-0.3260483145713806,-0.12515884637832522,9.812015533447266,8.999999999999999e-08,0.0,0.0,0.0,8.999999999999999e-08,0.0,0.0,0.0,8.999999999999999e-08
1719006712.831098,51960,1719006712,827003136,base_link,0.016763983740009845,-0.005739936164033301,-0.7956541699677218,-0.6054919306119647,1.0,0.0,0.0,0.0,1.0,0.0,0.0,0.0,1.0,-0.0005806870758533478,-0.0002906676090788096,0.00012613704893738034,1.2184696791468346e-07,0.0,0.0,0.0,1.2184696791468346e-07,0.0,0.0,0.0,1.2184696791468346e-07,-0.342115193605423,-0.1154690682888019,9.80255126953125,8.999999999999999e-08,0.0,0.0,0.0,8.999999999999999e-08,0.0,0.0,0.0,8.999999999999999e-08
1719006712.8373196,51961,1719006712,832003136,base_link,0.01676441640375159,-0.005739092568518575,-0.7956541383575855,-0.6054919622221011,1.0,0.0,0.0,0.0,1.0,0.0,0.0,0.0,1.0,-0.0005982136353850365,-0.00017719139577820897,4.74878470413387e-05,1.2184696791468346e-07,0.0,0.0,0.0,1.2184696791468346e-07,0.0,0.0,0.0,1.2184696791468346e-07,-0.3332163393497467,-0.1176527962088573,9.801153182983398,8.999999999999999e-08,0.0,0.0,0.0,8.999999999999999e-08,0.0,0.0,0.0,8.999999999999999e-08
1719006712.8439736,51962,1719006712,837003136,base_link,0.01676347270947165,-0.005735929579246734,-0.7956538011827973,-0.6054925522779802,1.0,0.0,0.0,0.0,1.0,0.0,0.0,0.0,1.0,-0.0003518182202242315,-0.0003132711863145232,3.2556301448494237e-05,1.2184696791468346e-07,0.0,0.0,0.0,1.2184696791468346e-07,0.0,0.0,0.0,1.2184696791468346e-07,-0.32909366488456726,-0.12086739391088366,9.795764923095703,8.999999999999999e-08,0.0,0.0,0.0,8.999999999999999e-08,0.0,0.0,0.0,8.999999999999999e-08
1719006712.8531106,51963,1719006712,847003136,base_link,0.016761064412205956,-0.0057376292826218376,-0.7956549496844192,-0.6054910666015701,1.0,0.0,0.0,0.0,1.0,0.0,0.0,0.0,1.0,0.00026290537789463997,-0.00023032040917314586,0.0003072488470934332,1.2184696791468346e-07,0.0,0.0,0.0,1.2184696791468346e-07,0.0,0.0,0.0,1.2184696791468346e-07,-0.3222712278366089,-0.10754686594009279,9.80613899230957,8.999999999999999e-08,0.0,0.0,0.0,8.999999999999999e-08,0.0,0.0,0.0,8.999999999999999e-08
1719006712.8570135,51964,1719006712,852003136,base_link,0.016761632736116347,-0.0057369345181659155,-0.795655265785783,-0.6054906662065094,1.0,0.0,0.0,0.0,1.0,0.0,0.0,0.0,1.0,0.0002263897331431508,-0.00014606665354222057,0.00031463062623515725,1.2184696791468346e-07,0.0,0.0,0.0,1.2184696791468346e-07,0.0,0.0,0.0,1.2184696791468346e-07,-0.32163429260253906,-0.1112995594739902,9.79941177368164,8.999999999999999e-08,0.0,0.0,0.0,8.999999999999999e-08,0.0,0.0,0.0,8.999999999999999e-08
1719006712.863199,51965,1719006712,857005440,base_link,0.01676201436265872,-0.005737777784408387,-0.7956547600236009,-0.6054911719686915,1.0,0.0,0.0,0.0,1.0,0.0,0.0,0.0,1.0,0.00031130295246839523,-8.34693928482011e-05,-1.2176227755844583e-05,1.2184696791468346e-07,0.0,0.0,0.0,1.2184696791468346e-07,0.0,0.0,0.0,1.2184696791468346e-07,-0.32790863513946533,-0.12491653114557145,9.814372062683105,8.999999999999999e-08,0.0,0.0,0.0,8.999999999999999e-08,0.0,0.0,0.0,8.999999999999999e-08
1719006712.8655183,51966,1719006712,862005440,base_link,0.01675903214385432,-0.005736055361247759,-0.7956551288085254,-0.605490803183767,1.0,0.0,0.0,0.0,1.0,0.0,0.0,0.0,1.0,0.0002622654428705573,-0.0002591275260783732,-3.6990968510508503e-05,1.2184696791468346e-07,0.0,0.0,0.0,1.2184696791468346e-07,0.0,0.0,0.0,1.2184696791468346e-07,-0.32790863513946533,-0.12491653114557145,9.814372062683105,8.999999999999999e-08,0.0,0.0,0.0,8.999999999999999e-08,0.0,0.0,0.0,8.999999999999999e-08
1719006712.8710632,51967,1719006712,867005440,base_link,0.016758474027383806,-0.005735454439384225,-0.7956545387526462,-0.6054917304144343,1.0,0.0,0.0,0.0,1.0,0.0,0.0,0.0,1.0,0.00017954804934561253,-0.0004212335916236043,-0.00017863675020635123,1.2184696791468346e-07,0.0,0.0,0.0,1.2184696791468346e-07,0.0,0.0,0.0,1.2184696791468346e-07,-0.3356953263282776,-0.10618463903665423,9.789417266845703,8.999999999999999e-08,0.0,0.0,0.0,8.999999999999999e-08,0.0,0.0,0.0,8.999999999999999e-08
1719006712.877408,51968,1719006712,872005440,base_link,0.01675731597686652,-0.005737120886261674,-0.7956556240339955,-0.6054903079582971,1.0,0.0,0.0,0.0,1.0,0.0,0.0,0.0,1.0,0.0005771687719970942,-8.551622158847739e-06,8.827348938211799e-05,1.2184696791468346e-07,0.0,0.0,0.0,1.2184696791468346e-07,0.0,0.0,0.0,1.2184696791468346e-07,-0.321483314037323,-0.09752170741557956,9.795811653137207,8.999999999999999e-08,0.0,0.0,0.0,8.999999999999999e-08,0.0,0.0,0.0,8.999999999999999e-08
1719006712.883028,51969,1719006712,877005440,base_link,0.01675637557530912,-0.005739349400876689,-0.7956556661808439,-0.6054902658114485,1.0,0.0,0.0,0.0,1.0,0.0,0.0,0.0,1.0,0.0007311671506613493,0.00018937309505417946,0.00017172424122691152,1.2184696791468346e-07,0.0,0.0,0.0,1.2184696791468346e-07,0.0,0.0,0.0,1.2184696791468346e-07,-0.32698336243629456,-0.10739558190107226,9.801055908203125,8.999999999999999e-08,0.0,0.0,0.0,8.999999999999999e-08,0.0,0.0,0.0,8.999999999999999e-08
1719006712.8913534,51970,1719006712,882005440,base_link,0.016756103925699577,-0.005740350717801076,-0.7956557294011167,-0.6054902025911757,1.0,0.0,0.0,0.0,1.0,0.0,0.0,0.0,1.0,0.0005867931758984923,0.0003020527074113488,0.00019323895685374734,1.2184696791468346e-07,0.0,0.0,0.0,1.2184696791468346e-07,0.0,0.0,0.0,1.2184696791468346e-07,-0.3372747600078583,-0.11916667968034624,9.80445671081543,8.999999999999999e-08,0.0,0.0,0.0,8.999999999999999e-08,0.0,0.0,0.0,8.999999999999999e-08
1719006712.895314,51971,1719006712,892005440,base_link,0.016757061449414183,-0.005741434682061215,-0.7956574784953299,-0.6054877791473864,1.0,0.0,0.0,0.0,1.0,0.0,0.0,0.0,1.0,0.0001573271001689136,0.00033178293961100286,0.0004854720318689942,1.2184696791468346e-07,0.0,0.0,0.0,1.2184696791468346e-07,0.0,0.0,0.0,1.2184696791468346e-07,-0.3424574136734009,-0.12236737459897876,9.794160842895508,8.999999999999999e-08,0.0,0.0,0.0,8.999999999999999e-08,0.0,0.0,0.0,8.999999999999999e-08
1719006712.9014397,51972,1719006712,897005440,base_link,0.016755547455590332,-0.005743356973480017,-0.7956578262068301,-0.6054873471421891,1.0,0.0,0.0,0.0,1.0,0.0,0.0,0.0,1.0,0.0006261359667405486,0.00014770463167224085,0.0005299779586493969,1.2184696791468346e-07,0.0,0.0,0.0,1.2184696791468346e-07,0.0,0.0,0.0,1.2184696791468346e-07,-0.31837427616119385,-0.10741344839334367,9.802356719970703,8.999999999999999e-08,0.0,0.0,0.0,8.999999999999999e-08,0.0,0.0,0.0,8.999999999999999e-08
1719006712.90786,51973,1719006712,902005440,base_link,0.016752776958845247,-0.00574510277497068,-0.7956576365460118,-0.6054877896840984,1.0,0.0,0.0,0.0,1.0,0.0,0.0,0.0,1.0,0.0009697075001895428,-0.00013742869487032292,0.00020004191901534798,1.2184696791468346e-07,0.0,0.0,0.0,1.2184696791468346e-07,0.0,0.0,0.0,1.2184696791468346e-07,-0.305067241191864,-0.11248749494552493,9.798239707946777,8.999999999999999e-08,0.0,0.0,0.0,8.999999999999999e-08,0.0,0.0,0.0,8.999999999999999e-08
1719006712.9130816,51974,1719006712,907005440,base_link,0.016753449003515643,-0.00574602177383157,-0.7956571307838297,-0.6054882954462806,1.0,0.0,0.0,0.0,1.0,0.0,0.0,0.0,1.0,0.0003609058912843466,6.850186036899683e-05,-0.00024125308846123517,1.2184696791468346e-07,0.0,0.0,0.0,1.2184696791468346e-07,0.0,0.0,0.0,1.2184696791468346e-07,-0.3330672085285187,-0.10779685527086139,9.78244686126709,8.999999999999999e-08,0.0,0.0,0.0,8.999999999999999e-08,0.0,0.0,0.0,8.999999999999999e-08
1719006712.919343,51975,1719006712,912005440,base_link,0.016755284037787137,-0.0057443632294882155,-0.7956563616038443,-0.6054891489199629,1.0,0.0,0.0,0.0,1.0,0.0,0.0,0.0,1.0,-0.0006341311964206398,0.00011625020852079614,-0.00011721969349309803,1.2184696791468346e-07,0.0,0.0,0.0,1.2184696791468346e-07,0.0,0.0,0.0,1.2184696791468346e-07,-0.32755666971206665,-0.1068745031952846,9.800530433654785,8.999999999999999e-08,0.0,0.0,0.0,8.999999999999999e-08,0.0,0.0,0.0,8.999999999999999e-08
1719006712.9244647,51976,1719006712,917005440,base_link,0.016756851373716138,-0.00574119167913777,-0.7956570886369811,-0.605488253299432,1.0,0.0,0.0,0.0,1.0,0.0,0.0,0.0,1.0,-0.0008353478624485433,2.5150955480057753e-05,6.691267481073737e-05,1.2184696791468346e-07,0.0,0.0,0.0,1.2184696791468346e-07,0.0,0.0,0.0,1.2184696791468346e-07,-0.326862096786499,-0.11483835428953051,9.791587829589844,8.999999999999999e-08,0.0,0.0,0.0,8.999999999999999e-08,0.0,0.0,0.0,8.999999999999999e-08
1719006712.9304502,51977,1719006712,922005440,base_link,0.016756737774788512,-0.0057395087686476194,-0.7956582898221637,-0.6054868835268554,1.0,0.0,0.0,0.0,1.0,0.0,0.0,0.0,1.0,-0.0007775134290568531,-0.00020152344950474796,0.00027551990933716297,1.2184696791468346e-07,0.0,0.0,0.0,1.2184696791468346e-07,0.0,0.0,0.0,1.2184696791468346e-07,-0.3295319378376007,-0.10384082049131274,9.795831680297852,8.999999999999999e-08,0.0,0.0,0.0,8.999999999999999e-08,0.0,0.0,0.0,8.999999999999999e-08
1719006712.935613,51978,1719006712,927005440,base_link,0.016756616602599042,-0.00573919530146182,-0.7956579315739514,-0.6054871574813708,1.0,0.0,0.0,0.0,1.0,0.0,0.0,0.0,1.0,-0.00026261544553563,-4.257503314875065e-05,0.00011130340863019228,1.2184696791468346e-07,0.0,0.0,0.0,1.2184696791468346e-07,0.0,0.0,0.0,1.2184696791468346e-07,-0.3183090090751648,-0.11878991872072099,9.808984756469727,8.999999999999999e-08,0.0,0.0,0.0,8.999999999999999e-08,0.0,0.0,0.0,8.999999999999999e-08
1719006712.9413939,51979,1719006712,937005440,base_link,0.01675273514126899,-0.005739157105880357,-0.7956576365460118,-0.6054876210967044,1.0,0.0,0.0,0.0,1.0,0.0,0.0,0.0,1.0,0.00035395706072449684,-0.00041187636088579893,-8.740148041397328e-05,1.2184696791468346e-07,0.0,0.0,0.0,1.2184696791468346e-07,0.0,0.0,0.0,1.2184696791468346e-07,-0.3222263753414154,-0.12195559591054797,9.796714782714844,8.999999999999999e-08,0.0,0.0,0.0,8.999999999999999e-08,0.0,0.0,0.0,8.999999999999999e-08
1719006712.9476094,51980,1719006712,942005440,base_link,0.016753591578401623,-0.005737642124239744,-0.7956565407279504,-0.6054893069706448,1.0,0.0,0.0,0.0,1.0,0.0,0.0,0.0,1.0,5.53031568415463e-05,-0.0005273555871099234,-0.00037463387707248325,1.2184696791468346e-07,0.0,0.0,0.0,1.2184696791468346e-07,0.0,0.0,0.0,1.2184696791468346e-07,-0.32473161816596985,-0.11435989290475726,9.798324584960938,8.999999999999999e-08,0.0,0.0,0.0,8.999999999999999e-08,0.0,0.0,0.0,8.999999999999999e-08
1719006712.952985,51981,1719006712,947005440,base_link,0.016754815812641963,-0.005737345120666644,-0.7956561087227533,-0.6054896546821451,1.0,0.0,0.0,0.0,1.0,0.0,0.0,0.0,1.0,-0.0004068730631843209,-6.077752914280073e-07,-0.00030479286215268075,1.2184696791468346e-07,0.0,0.0,0.0,1.2184696791468346e-07,0.0,0.0,0.0,1.2184696791468346e-07,-0.32695040106773376,-0.09821760654449342,9.812238693237305,8.999999999999999e-08,0.0,0.0,0.0,8.999999999999999e-08,0.0,0.0,0.0,8.999999999999999e-08
1719006712.9593847,51982,1719006712,952005440,base_link,0.016757193487588036,-0.0057346144658642914,-0.7956565407279504,-0.6054891383832508,1.0,0.0,0.0,0.0,1.0,0.0,0.0,0.0,1.0,-0.0008586810436099768,0.00018641311908140776,-0.0002654397103469819,1.2184696791468346e-07,0.0,0.0,0.0,1.2184696791468346e-07,0.0,0.0,0.0,1.2184696791468346e-07,-0.3281899392604828,-0.11320906132459521,9.794915199279785,8.999999999999999e-08,0.0,0.0,0.0,8.999999999999999e-08,0.0,0.0,0.0,8.999999999999999e-08
1719006712.9696336,51983,1719006712,962006976,base_link,0.01675810557173159,-0.005733668137406321,-0.7956539803069035,-0.6054924574475711,1.0,0.0,0.0,0.0,1.0,0.0,0.0,0.0,1.0,-0.0005373134044930339,0.00010886299423873418,-0.0006071481620892882,1.2184696791468346e-07,0.0,0.0,0.0,1.2184696791468346e-07,0.0,0.0,0.0,1.2184696791468346e-07,-0.3219773471355438,-0.10292463004588961,9.801153182983398,8.999999999999999e-08,0.0,0.0,0.0,8.999999999999999e-08,0.0,0.0,0.0,8.999999999999999e-08
1719006712.9710512,51984,1719006712,967006976,base_link,0.01675583523954032,-0.005733077752254915,-0.7956548127071617,-0.6054912878725249,1.0,0.0,0.0,0.0,1.0,0.0,0.0,0.0,1.0,1.3420823961496353e-05,-0.00028742983704432845,-0.00012184129445813592,1.2184696791468346e-07,0.0,0.0,0.0,1.2184696791468346e-07,0.0,0.0,0.0,1.2184696791468346e-07,-0.3330806493759155,-0.10796318203210711,9.789230346679688,8.999999999999999e-08,0.0,0.0,0.0,8.999999999999999e-08,0.0,0.0,0.0,8.999999999999999e-08
1719006712.9775884,51985,1719006712,972006976,base_link,0.01675628667180054,-0.005733068861904057,-0.7956535061548577,-0.6054930158933137,1.0,0.0,0.0,0.0,1.0,0.0,0.0,0.0,1.0,-0.00013402104377746582,-0.0001278385170735419,-0.0002664423082023859,1.2184696791468346e-07,0.0,0.0,0.0,1.2184696791468346e-07,0.0,0.0,0.0,1.2184696791468346e-07,-0.3342445492744446,-0.10093122720718263,9.802308082580566,8.999999999999999e-08,0.0,0.0,0.0,8.999999999999999e-08,0.0,0.0,0.0,8.999999999999999e-08
1719006712.9833426,51986,1719006712,977006976,base_link,0.016756877386224202,-0.005732723126037366,-0.7956540962107369,-0.6054924258374347,1.0,0.0,0.0,0.0,1.0,0.0,0.0,0.0,1.0,0.00010722113074734807,4.1105799027718604e-05,-2.2698135580867532e-05,1.2184696791468346e-07,0.0,0.0,0.0,1.2184696791468346e-07,0.0,0.0,0.0,1.2184696791468346e-07,-0.3355461657047272,-0.10355935990810275,9.795917510986328,8.999999999999999e-08,0.0,0.0,0.0,8.999999999999999e-08,0.0,0.0,0.0,8.999999999999999e-08
1719006712.989489,51987,1719006712,982006976,base_link,0.016755912947792263,-0.005733903567067925,-0.7956531479066454,-0.6054936270226172,1.0,0.0,0.0,0.0,1.0,0.0,0.0,0.0,1.0,0.0002094227820634842,0.00010335040860809382,-0.0003756496880669147,1.2184696791468346e-07,0.0,0.0,0.0,1.2184696791468346e-07,0.0,0.0,0.0,1.2184696791468346e-07,-0.33536359667778015,-0.11550492048263429,9.817806243896484,8.999999999999999e-08,0.0,0.0,0.0,8.999999999999999e-08,0.0,0.0,0.0,8.999999999999999e-08
1719006712.99583,51988,1719006712,992006976,base_link,0.016756419697791153,-0.005733344133508394,-0.7956511564680533,-0.6054962928107855,1.0,0.0,0.0,0.0,1.0,0.0,0.0,0.0,1.0,8.780852658674121e-05,-6.749498425051663e-06,-0.0007619308307766914,1.2184696791468346e-07,0.0,0.0,0.0,1.2184696791468346e-07,0.0,0.0,0.0,1.2184696791468346e-07,-0.32785651087760925,-0.10148923099040864,9.804485321044922,8.999999999999999e-08,0.0,0.0,0.0,8.999999999999999e-08,0.0,0.0,0.0,8.999999999999999e-08
1719006713.0014985,51989,1719006712,997006976,base_link,0.01675862549262064,-0.005731167314637257,-0.7956510300275077,-0.6054962506639371,1.0,0.0,0.0,0.0,1.0,0.0,0.0,0.0,1.0,-0.0004998209187760949,0.00016046228120103473,-0.0003551127156242728,1.2184696791468346e-07,0.0,0.0,0.0,1.2184696791468346e-07,0.0,0.0,0.0,1.2184696791468346e-07,-0.3230328857898712,-0.1090666428208339,9.80398941040039,8.999999999999999e-08,0.0,0.0,0.0,8.999999999999999e-08,0.0,0.0,0.0,8.999999999999999e-08
1719006713.0100787,51990,1719006713,2006976,base_link,0.016759122035179663,-0.005730615454339567,-0.7956510932477805,-0.6054963560310583,1.0,0.0,0.0,0.0,1.0,0.0,0.0,0.0,1.0,-0.0003103384515270591,4.401935439091176e-05,-2.150365617126227e-05,1.2184696791468346e-07,0.0,0.0,0.0,1.2184696791468346e-07,0.0,0.0,0.0,1.2184696791468346e-07,-0.3238438665866852,-0.11138577014207719,9.809828758239746,8.999999999999999e-08,0.0,0.0,0.0,8.999999999999999e-08,0.0,0.0,0.0,8.999999999999999e-08
1719006713.0109792,51991,1719006713,7006976,base_link,0.01675779210454579,-0.005733415256315257,-0.7956508403666894,-0.6054965246184523,1.0,0.0,0.0,0.0,1.0,0.0,0.0,0.0,1.0,0.0003100757021456957,0.0001351448881905526,-4.309974610805513e-05,1.2184696791468346e-07,0.0,0.0,0.0,1.2184696791468346e-07,0.0,0.0,0.0,1.2184696791468346e-07,-0.3238438665866852,-0.11138577014207719,9.809828758239746,8.999999999999999e-08,0.0,0.0,0.0,8.999999999999999e-08,0.0,0.0,0.0,8.999999999999999e-08
1719006713.0172217,51992,1719006713,12006976,base_link,0.016756570833755736,-0.0057340438370481256,-0.7956516727669476,-0.6054956079244973,1.0,0.0,0.0,0.0,1.0,0.0,0.0,0.0,1.0,0.0006425414467230439,1.6380297893192646e-05,0.0002118617994710803,1.2184696791468346e-07,0.0,0.0,0.0,1.2184696791468346e-07,0.0,0.0,0.0,1.2184696791468346e-07,-0.33758631348609924,-0.10052847117185472,9.810368537902832,8.999999999999999e-08,0.0,0.0,0.0,8.999999999999999e-08,0.0,0.0,0.0,8.999999999999999e-08
1719006713.0230622,51993,1719006713,17006976,base_link,0.01675567192050234,-0.00573278535849337,-0.7956512618351745,-0.6054961031499672,1.0,0.0,0.0,0.0,1.0,0.0,0.0,0.0,1.0,-5.2223680540919304e-05,-0.000298114464385435,5.888100713491443e-05,1.2184696791468346e-07,0.0,0.0,0.0,1.2184696791468346e-07,0.0,0.0,0.0,1.2184696791468346e-07,-0.33187779784202576,-0.11227889358997226,9.795978546142578,8.999999999999999e-08,0.0,0.0,0.0,8.999999999999999e-08,0.0,0.0,0.0,8.999999999999999e-08
1719006713.0305743,51994,1719006713,22006976,base_link,0.01675681778794623,-0.0057311363630453815,-0.7956519045746143,-0.6054952918231333,1.0,0.0,0.0,0.0,1.0,0.0,0.0,0.0,1.0,-0.00019231182523071766,-7.40245450288057e-05,0.00020777620375156403,1.2184696791468346e-07,0.0,0.0,0.0,1.2184696791468346e-07,0.0,0.0,0.0,1.2184696791468346e-07,-0.3361485004425049,-0.11425769329070924,9.811013221740723,8.999999999999999e-08,0.0,0.0,0.0,8.999999999999999e-08,0.0,0.0,0.0,8.999999999999999e-08
1719006713.0349877,51995,1719006713,32006976,base_link,0.016755044327586233,-0.005731766590139522,-0.7956517570606446,-0.6054955236308003,1.0,0.0,0.0,0.0,1.0,0.0,0.0,0.0,1.0,0.00010621966794133186,-9.783786663319914e-05,6.498862057924272e-05,1.2184696791468346e-07,0.0,0.0,0.0,1.2184696791468346e-07,0.0,0.0,0.0,1.2184696791468346e-07,-0.32700496912002563,-0.10536229610442994,9.822888374328613,8.999999999999999e-08,0.0,0.0,0.0,8.999999999999999e-08,0.0,0.0,0.0,8.999999999999999e-08
1719006713.0440319,51996,1719006713,37006976,base_link,0.01675694653339754,-0.005731458062037531,-0.79565138827572,-0.6054959767094217,1.0,0.0,0.0,0.0,1.0,0.0,0.0,0.0,1.0,-7.755547994747758e-05,0.00018572741828393188,-0.00013429738464765253,1.2184696791468346e-07,0.0,0.0,0.0,1.2184696791468346e-07,0.0,0.0,0.0,1.2184696791468346e-07,-0.3242647349834442,-0.1147964671254146,9.812287330627441,8.999999999999999e-08,0.0,0.0,0.0,8.999999999999999e-08,0.0,0.0,0.0,8.999999999999999e-08
1719006713.0478017,51997,1719006713,42006976,base_link,0.0167571042548072,-0.005732195961158726,-0.7956504399716287,-0.6054971778946043,1.0,0.0,0.0,0.0,1.0,0.0,0.0,0.0,1.0,-2.4636276066303253e-05,0.0002797228517010808,-0.00021656099124811592,1.2184696791468346e-07,0.0,0.0,0.0,1.2184696791468346e-07,0.0,0.0,0.0,1.2184696791468346e-07,-0.31158047914505005,-0.1000189483165729,9.796597480773926,8.999999999999999e-08,0.0,0.0,0.0,8.999999999999999e-08,0.0,0.0,0.0,8.999999999999999e-08
1719006713.0538118,51998,1719006713,47006976,base_link,0.016756991314424083,-0.005731850554564289,-0.7956506612425832,-0.6054968723299525,1.0,0.0,0.0,0.0,1.0,0.0,0.0,0.0,1.0,0.00010040390770882368,6.59932702546939e-05,-0.0002481232222635299,1.2184696791468346e-07,0.0,0.0,0.0,1.2184696791468346e-07,0.0,0.0,0.0,1.2184696791468346e-07,-0.3319436311721802,-0.11753445118665576,9.79859447479248,8.999999999999999e-08,0.0,0.0,0.0,8.999999999999999e-08,0.0,0.0,0.0,8.999999999999999e-08
1719006713.059278,51999,1719006713,52007744,base_link,0.016756224110072285,-0.005731253254695548,-0.7956503767513559,-0.605497241114877,1.0,0.0,0.0,0.0,1.0,0.0,0.0,0.0,1.0,-5.208764923736453e-05,-0.00021178802126087248,-2.7901201974600526e-05,1.2184696791468346e-07,0.0,0.0,0.0,1.2184696791468346e-07,0.0,0.0,0.0,1.2184696791468346e-07,-0.3341626524925232,-0.1101909801363933,9.807674407958984,8.999999999999999e-08,0.0,0.0,0.0,8.999999999999999e-08,0.0,0.0,0.0,8.999999999999999e-08
1719006713.0631185,52000,1719006713,57007744,base_link,0.016757123352597936,-0.005730111667790961,-0.7956504821184771,-0.6054971357477558,1.0,0.0,0.0,0.0,1.0,0.0,0.0,0.0,1.0,-0.00034912515548057854,-9.337652591057122e-05,-6.973103154450643e-06,1.2184696791468346e-07,0.0,0.0,0.0,1.2184696791468346e-07,0.0,0.0,0.0,1.2184696791468346e-07,-0.3252975344657898,-0.11091829836368441,9.78329086303711,8.999999999999999e-08,0.0,0.0,0.0,8.999999999999999e-08,0.0,0.0,0.0,8.999999999999999e-08
1719006713.0692728,52001,1719006713,62007744,base_link,0.016757791775273537,-0.0057279259585689656,-0.7956511037844927,-0.6054963454943462,1.0,0.0,0.0,0.0,1.0,0.0,0.0,0.0,1.0,-0.0005650169332511723,-0.00021282973466441035,5.01752947457135e-05,1.2184696791468346e-07,0.0,0.0,0.0,1.2184696791468346e-07,0.0,0.0,0.0,1.2184696791468346e-07,-0.3252921402454376,-0.11175081133842349,9.789643287658691,8.999999999999999e-08,0.0,0.0,0.0,8.999999999999999e-08,0.0,0.0,0.0,8.999999999999999e-08
1719006713.0756776,52002,1719006713,67007744,base_link,0.01675737656296125,-0.005727298036380606,-0.7956500817234162,-0.6054975361428167,1.0,0.0,0.0,0.0,1.0,0.0,0.0,0.0,1.0,-6.523844785988331e-05,0.0001966564304893836,-0.0001522171951364726,1.2184696791468346e-07,0.0,0.0,0.0,1.2184696791468346e-07,0.0,0.0,0.0,1.2184696791468346e-07,-0.3244585394859314,-0.11607315391301988,9.802935600280762,8.999999999999999e-08,0.0,0.0,0.0,8.999999999999999e-08,0.0,0.0,0.0,8.999999999999999e-08
1719006713.0823145,52003,1719006713,77007744,base_link,0.016757208634111717,-0.0057286513453445095,-0.7956499552828707,-0.6054978311707562,1.0,0.0,0.0,0.0,1.0,0.0,0.0,0.0,1.0,0.00014070357428863645,7.436871965182944e-05,-9.106544894166292e-05,1.2184696791468346e-07,0.0,0.0,0.0,1.2184696791468346e-07,0.0,0.0,0.0,1.2184696791468346e-07,-0.3344786763191223,-0.11052808165550111,9.808208465576172,8.999999999999999e-08,0.0,0.0,0.0,8.999999999999999e-08,0.0,0.0,0.0,8.999999999999999e-08
1719006713.0894713,52004,1719006713,82007744,base_link,0.01675861133391372,-0.005729153156259593,-0.7956507455362802,-0.6054967880362555,1.0,0.0,0.0,0.0,1.0,0.0,0.0,0.0,1.0,0.00020638061687350273,0.00029119537794031203,0.00019502628128975627,1.2184696791468346e-07,0.0,0.0,0.0,1.2184696791468346e-07,0.0,0.0,0.0,1.2184696791468346e-07,-0.3432634770870209,-0.1061915084719646,9.792717933654785,8.999999999999999e-08,0.0,0.0,0.0,8.999999999999999e-08,0.0,0.0,0.0,8.999999999999999e-08
1719006713.0944173,52005,1719006713,87007744,base_link,0.016757558321245456,-0.005731080716034458,-0.7956497866954766,-0.6054980840518472,1.0,0.0,0.0,0.0,1.0,0.0,0.0,0.0,1.0,0.00038308207876980305,0.0002899494720622897,-0.0001555912313051522,1.2184696791468346e-07,0.0,0.0,0.0,1.2184696791468346e-07,0.0,0.0,0.0,1.2184696791468346e-07,-0.32145974040031433,-0.12087372690439104,9.821791648864746,8.999999999999999e-08,0.0,0.0,0.0,8.999999999999999e-08,0.0,0.0,0.0,8.999999999999999e-08
1719006713.0979648,52006,1719006713,92007744,base_link,0.016758432868352057,-0.005730709296931954,-0.7956490280522035,-0.6054989269888175,1.0,0.0,0.0,0.0,1.0,0.0,0.0,0.0,1.0,0.00025672069750726223,0.0002373640018049627,-0.0003345837467350066,1.2184696791468346e-07,0.0,0.0,0.0,1.2184696791468346e-07,0.0,0.0,0.0,1.2184696791468346e-07,-0.33309289813041687,-0.11686039716005206,9.799017906188965,8.999999999999999e-08,0.0,0.0,0.0,8.999999999999999e-08,0.0,0.0,0.0,8.999999999999999e-08
1719006713.103188,52007,1719006713,97007744,base_link,0.016758628785343184,-0.005730292108986148,-0.7956481324316725,-0.6055000754904394,1.0,0.0,0.0,0.0,1.0,0.0,0.0,0.0,1.0,3.442849265411496e-05,0.00022350504877977068,-0.0005369089776650071,1.2184696791468346e-07,0.0,0.0,0.0,1.2184696791468346e-07,0.0,0.0,0.0,1.2184696791468346e-07,-0.3316861391067505,-0.1159735843539226,9.792923927307129,8.999999999999999e-08,0.0,0.0,0.0,8.999999999999999e-08,0.0,0.0,0.0,8.999999999999999e-08
1719006713.109991,52008,1719006713,102007744,base_link,0.01675773612826261,-0.005732130435980182,-0.7956471525174447,-0.6055013925794553,1.0,0.0,0.0,0.0,1.0,0.0,0.0,0.0,1.0,0.00024296040646731853,4.8695837904233404e-05,-0.0006747936713509262,1.2184696791468346e-07,0.0,0.0,0.0,1.2184696791468346e-07,0.0,0.0,0.0,1.2184696791468346e-07,-0.3218594193458557,-0.10585932433605075,9.799007415771484,8.999999999999999e-08,0.0,0.0,0.0,8.999999999999999e-08,0.0,0.0,0.0,8.999999999999999e-08
1719006713.1166532,52009,1719006713,107007744,base_link,0.01675719217049902,-0.0057330273736000545,-0.7956463622640352,-0.605502435713956,1.0,0.0,0.0,0.0,1.0,0.0,0.0,0.0,1.0,0.00033598870504647493,0.00011569334310479457,-0.0003903236356563866,1.2184696791468346e-07,0.0,0.0,0.0,1.2184696791468346e-07,0.0,0.0,0.0,1.2184696791468346e-07,-0.3284939229488373,-0.10673990100622058,9.801566123962402,8.999999999999999e-08,0.0,0.0,0.0,8.999999999999999e-08,0.0,0.0,0.0,8.999999999999999e-08
1719006713.1224484,52010,1719006713,117007744,base_link,0.016756938630863444,-0.005735243375869416,-0.7956464676311564,-0.6055023303468348,1.0,0.0,0.0,0.0,1.0,0.0,0.0,0.0,1.0,0.0005192921962589025,0.00027447930187918246,-0.00010984824621118608,1.2184696791468346e-07,0.0,0.0,0.0,1.2184696791468346e-07,0.0,0.0,0.0,1.2184696791468346e-07,-0.3338507413864136,-0.11989233642816424,9.789348602294922,8.999999999999999e-08,0.0,0.0,0.0,8.999999999999999e-08,0.0,0.0,0.0,8.999999999999999e-08
1719006713.1298938,52011,1719006713,122007744,base_link,0.016756255390936413,-0.0057356816372394785,-0.7956451083952919,-0.6055041110511843,1.0,0.0,0.0,0.0,1.0,0.0,0.0,0.0,1.0,0.00046836421824991703,0.00017421011580154297,-0.000306706439005211,1.2184696791468346e-07,0.0,0.0,0.0,1.2184696791468346e-07,0.0,0.0,0.0,1.2184696791468346e-07,-0.3265855014324188,-0.10542809963226199,9.801380157470703,8.999999999999999e-08,0.0,0.0,0.0,8.999999999999999e-08,0.0,0.0,0.0,8.999999999999999e-08
1719006713.1342735,52012,1719006713,127007744,base_link,0.016756324867382006,-0.0057372295461054915,-0.7956455930840498,-0.6055034577750323,1.0,0.0,0.0,0.0,1.0,0.0,0.0,0.0,1.0,0.00048238097224384546,0.00030422158306464553,-5.363085074350241e-05,1.2184696791468346e-07,0.0,0.0,0.0,1.2184696791468346e-07,0.0,0.0,0.0,1.2184696791468346e-07,-0.31584632396698,-0.0906902551650989,9.795032501220703,8.999999999999999e-08,0.0,0.0,0.0,8.999999999999999e-08,0.0,0.0,0.0,8.999999999999999e-08
1719006713.1382983,52013,1719006713,132007744,base_link,0.0167571329014933,-0.005738760662086551,-0.7956454771802164,-0.6055035736788658,1.0,0.0,0.0,0.0,1.0,0.0,0.0,0.0,1.0,0.0003786656307056546,0.00038276187842711806,-2.4401873815804767e-05,1.2184696791468346e-07,0.0,0.0,0.0,1.2184696791468346e-07,0.0,0.0,0.0,1.2184696791468346e-07,-0.3324466347694397,-0.12100421637296557,9.788559913635254,8.999999999999999e-08,0.0,0.0,0.0,8.999999999999999e-08,0.0,0.0,0.0,8.999999999999999e-08
1719006713.1432223,52014,1719006713,137007744,base_link,0.01675607692537475,-0.005739900931902124,-0.7956451400054283,-0.6055041637347449,1.0,0.0,0.0,0.0,1.0,0.0,0.0,0.0,1.0,0.00037495291326195,0.00042626302456483245,-1.0661198757588916e-05,1.2184696791468346e-07,0.0,0.0,0.0,1.2184696791468346e-07,0.0,0.0,0.0,1.2184696791468346e-07,-0.33523112535476685,-0.11032797396182893,9.803462982177734,8.999999999999999e-08,0.0,0.0,0.0,8.999999999999999e-08,0.0,0.0,0.0,8.999999999999999e-08
1719006713.149965,52015,1719006713,142007744,base_link,0.016757649529659812,-0.005741386608312133,-0.7956443286785945,-0.6055051436489728,1.0,0.0,0.0,0.0,1.0,0.0,0.0,0.0,1.0,0.00015427230391651392,0.0004014728765469044,-0.00029101729160174733,1.2184696791468346e-07,0.0,0.0,0.0,1.2184696791468346e-07,0.0,0.0,0.0,1.2184696791468346e-07,-0.3278585374355316,-0.11610419303178668,9.790318489074707,8.999999999999999e-08,0.0,0.0,0.0,8.999999999999999e-08,0.0,0.0,0.0,8.999999999999999e-08
1719006713.158015,52016,1719006713,152007744,base_link,0.016754854666767936,-0.005743825857169701,-0.7956438229164123,-0.605505733704852,1.0,0.0,0.0,0.0,1.0,0.0,0.0,0.0,1.0,0.0005882459226995707,2.661967300809917e-05,-0.0002086411404889077,1.2184696791468346e-07,0.0,0.0,0.0,1.2184696791468346e-07,0.0,0.0,0.0,1.2184696791468346e-07,-0.3350726366043091,-0.10756781697273135,9.790909767150879,8.999999999999999e-08,0.0,0.0,0.0,8.999999999999999e-08,0.0,0.0,0.0,8.999999999999999e-08
1719006713.1620896,52017,1719006713,157010304,base_link,0.01675536997784543,-0.005745660232896686,-0.7956432012503968,-0.6055065239582615,1.0,0.0,0.0,0.0,1.0,0.0,0.0,0.0,1.0,0.0008017119253054261,0.0002917734673246741,-0.00032118844683282083,1.2184696791468346e-07,0.0,0.0,0.0,1.2184696791468346e-07,0.0,0.0,0.0,1.2184696791468346e-07,-0.3261810541152954,-0.09747587144374728,9.783406257629395,8.999999999999999e-08,0.0,0.0,0.0,8.999999999999999e-08,0.0,0.0,0.0,8.999999999999999e-08
1719006713.168069,52018,1719006713,162010304,base_link,0.016754701225897575,-0.005747335240852741,-0.7956433276909423,-0.6055063132240189,1.0,0.0,0.0,0.0,1.0,0.0,0.0,0.0,1.0,0.0008017119253054261,0.0002917734673246741,-0.00032118844683282083,1.2184696791468346e-07,0.0,0.0,0.0,1.2184696791468346e-07,0.0,0.0,0.0,1.2184696791468346e-07,-0.3151700496673584,-0.12543544173240542,9.805073738098145,8.999999999999999e-08,0.0,0.0,0.0,8.999999999999999e-08,0.0,0.0,0.0,8.999999999999999e-08
1719006713.1733544,52019,1719006713,167010304,base_link,0.01675292150936475,-0.005747924308915132,-0.795642642804654,-0.6055074195787924,1.0,0.0,0.0,0.0,1.0,0.0,0.0,0.0,1.0,0.0006864261813461781,0.000256312545388937,-2.4804496206343204e-05,1.2184696791468346e-07,0.0,0.0,0.0,1.2184696791468346e-07,0.0,0.0,0.0,1.2184696791468346e-07,-0.3133309781551361,-0.11500689387321351,9.808113098144531,8.999999999999999e-08,0.0,0.0,0.0,8.999999999999999e-08,0.0,0.0,0.0,8.999999999999999e-08
1719006713.1774747,52020,1719006713,172010304,base_link,0.016754000863813335,-0.005750891051923594,-0.7956439282835336,-0.6055056283377307,1.0,0.0,0.0,0.0,1.0,0.0,0.0,0.0,1.0,0.000664637191221118,0.0004674959054682404,9.59498574957251e-05,1.2184696791468346e-07,0.0,0.0,0.0,1.2184696791468346e-07,0.0,0.0,0.0,1.2184696791468346e-07,-0.3314131200313568,-0.09565521031617999,9.793067932128906,8.999999999999999e-08,0.0,0.0,0.0,8.999999999999999e-08,0.0,0.0,0.0,8.999999999999999e-08
1719006713.1830933,52021,1719006713,177010304,base_link,0.01675355404136467,-0.005753231848377218,-0.7956440231139428,-0.6055055335073215,1.0,0.0,0.0,0.0,1.0,0.0,0.0,0.0,1.0,0.0006098593585193157,0.0006553702405653894,0.00039888435276225204,1.2184696791468346e-07,0.0,0.0,0.0,1.2184696791468346e-07,0.0,0.0,0.0,1.2184696791468346e-07,-0.31653130054473877,-0.11424804478883623,9.809589385986328,8.999999999999999e-08,0.0,0.0,0.0,8.999999999999999e-08,0.0,0.0,0.0,8.999999999999999e-08
1719006713.1890843,52022,1719006713,182010304,base_link,0.016754332770245357,-0.00575398357693308,-0.7956445604862613,-0.6055046589602149,1.0,0.0,0.0,0.0,1.0,0.0,0.0,0.0,1.0,0.000504960073158145,0.00028338411357253795,0.0002643954940140247,1.2184696791468346e-07,0.0,0.0,0.0,1.2184696791468346e-07,0.0,0.0,0.0,1.2184696791468346e-07,-0.3198937177658081,-0.11961687356233476,9.810766220092773,8.999999999999999e-08,0.0,0.0,0.0,8.999999999999999e-08,0.0,0.0,0.0,8.999999999999999e-08
1719006713.1978786,52023,1719006713,192010304,base_link,0.01675153955371475,-0.005756197274296664,-0.7956431801769726,-0.6055066293253828,1.0,0.0,0.0,0.0,1.0,0.0,0.0,0.0,1.0,0.000622690306045115,0.00012032631639158352,-0.00014239925076253715,1.2184696791468346e-07,0.0,0.0,0.0,1.2184696791468346e-07,0.0,0.0,0.0,1.2184696791468346e-07,-0.3272632360458374,-0.10141276568174243,9.79906177520752,8.999999999999999e-08,0.0,0.0,0.0,8.999999999999999e-08,0.0,0.0,0.0,8.999999999999999e-08
1719006713.2020442,52024,1719006713,197010304,base_link,0.016752026547378403,-0.005757438301421957,-0.7956436437923061,-0.6055059971226551,1.0,0.0,0.0,0.0,1.0,0.0,0.0,0.0,1.0,0.00046520703472197056,0.0001140021631726995,-0.00013463519280776384,1.2184696791468346e-07,0.0,0.0,0.0,1.2184696791468346e-07,0.0,0.0,0.0,1.2184696791468346e-07,-0.329793244600296,-0.11097241193055987,9.796241760253906,8.999999999999999e-08,0.0,0.0,0.0,8.999999999999999e-08,0.0,0.0,0.0,8.999999999999999e-08
1719006713.2092822,52025,1719006713,202010304,base_link,0.01675091591206569,-0.005756475838623541,-0.7956441390177761,-0.6055053333097911,1.0,0.0,0.0,0.0,1.0,0.0,0.0,0.0,1.0,8.525938028469682e-05,-0.0001471932337153703,0.00010124576510861517,1.2184696791468346e-07,0.0,0.0,0.0,1.2184696791468346e-07,0.0,0.0,0.0,1.2184696791468346e-07,-0.3238246738910675,-0.10465361922979236,9.801339149475098,8.999999999999999e-08,0.0,0.0,0.0,8.999999999999999e-08,0.0,0.0,0.0,8.999999999999999e-08
1719006713.2133234,52026,1719006713,207010304,base_link,0.01675165282337012,-0.005754303300291705,-0.7956457089878832,-0.6055034261648959,1.0,0.0,0.0,0.0,1.0,0.0,0.0,0.0,1.0,-0.0002741407370194793,-0.0002508413163013756,0.0004081873921677471,1.2184696791468346e-07,0.0,0.0,0.0,1.2184696791468346e-07,0.0,0.0,0.0,1.2184696791468346e-07,-0.31830254197120667,-0.10115320980548739,9.79784107208252,8.999999999999999e-08,0.0,0.0,0.0,8.999999999999999e-08,0.0,0.0,0.0,8.999999999999999e-08
1719006713.217645,52027,1719006713,212010304,base_link,0.0167511849274972,-0.005755316471017237,-0.795645276982686,-0.6055037738763962,1.0,0.0,0.0,0.0,1.0,0.0,0.0,0.0,1.0,-9.557278826832771e-05,-0.00014986857422627503,0.0003729392774403095,1.2184696791468346e-07,0.0,0.0,0.0,1.2184696791468346e-07,0.0,0.0,0.0,1.2184696791468346e-07,-0.3170569837093353,-0.1110120490193355,9.808707237243652,8.999999999999999e-08,0.0,0.0,0.0,8.999999999999999e-08,0.0,0.0,0.0,8.999999999999999e-08
1719006713.22309,52028,1719006713,217010304,base_link,0.016750467443255753,-0.005755246336027138,-0.7956455087903528,-0.6055036263624264,1.0,0.0,0.0,0.0,1.0,0.0,0.0,0.0,1.0,-1.9672675989568233e-05,-7.537654892075806e-05,7.598154479637743e-05,1.2184696791468346e-07,0.0,0.0,0.0,1.2184696791468346e-07,0.0,0.0,0.0,1.2184696791468346e-07,-0.3257475197315216,-0.10759866237640262,9.789355278015137,8.999999999999999e-08,0.0,0.0,0.0,8.999999999999999e-08,0.0,0.0,0.0,8.999999999999999e-08
1719006713.2299094,52029,1719006713,222010304,base_link,0.016750405540072004,-0.005754591742786201,-0.7956452348358375,-0.6055039846106387,1.0,0.0,0.0,0.0,1.0,0.0,0.0,0.0,1.0,6.0643593315035105e-05,0.00016808870714157822,0.00018554204143583772,1.2184696791468346e-07,0.0,0.0,0.0,1.2184696791468346e-07,0.0,0.0,0.0,1.2184696791468346e-07,-0.3263610005378723,-0.12352826446294665,9.79393482208252,8.999999999999999e-08,0.0,0.0,0.0,8.999999999999999e-08,0.0,0.0,0.0,8.999999999999999e-08
1719006713.2356946,52030,1719006713,227010304,base_link,0.016752128292504886,-0.005756480448435097,-0.7956461409930805,-0.6055026569849107,1.0,0.0,0.0,0.0,1.0,0.0,0.0,0.0,1.0,1.063797390088439e-05,0.0003509316011331976,0.00033712835283949966,1.2184696791468346e-07,0.0,0.0,0.0,1.2184696791468346e-07,0.0,0.0,0.0,1.2184696791468346e-07,-0.3302501142024994,-0.10687453299760698,9.80469799041748,8.999999999999999e-08,0.0,0.0,0.0,8.999999999999999e-08,0.0,0.0,0.0,8.999999999999999e-08
1719006713.2412708,52031,1719006713,237010304,base_link,0.016754428917743522,-0.005755863062958862,-0.7956466046084141,-0.6055020247821831,1.0,0.0,0.0,0.0,1.0,0.0,0.0,0.0,1.0,-0.00019632361363619566,0.00047349050873890525,0.0003136682207696139,1.2184696791468346e-07,0.0,0.0,0.0,1.2184696791468346e-07,0.0,0.0,0.0,1.2184696791468346e-07,-0.3161582350730896,-0.11025959998369096,9.80334186553955,8.999999999999999e-08,0.0,0.0,0.0,8.999999999999999e-08,0.0,0.0,0.0,8.999999999999999e-08
1719006713.2475655,52032,1719006713,242010304,base_link,0.016752915582464178,-0.005755311202661173,-0.7956471946642932,-0.6055012661389099,1.0,0.0,0.0,0.0,1.0,0.0,0.0,0.0,1.0,-8.396478369832039e-05,0.00015187315875664356,0.00015186250675469634,1.2184696791468346e-07,0.0,0.0,0.0,1.2184696791468346e-07,0.0,0.0,0.0,1.2184696791468346e-07,-0.3289317786693573,-0.11132247745990632,9.80638313293457,8.999999999999999e-08,0.0,0.0,0.0,8.999999999999999e-08,0.0,0.0,0.0,8.999999999999999e-08
1719006713.2533271,52033,1719006713,247010304,base_link,0.016751734153616856,-0.005753992796556193,-0.7956465413881413,-0.6055021722961528,1.0,0.0,0.0,0.0,1.0,0.0,0.0,0.0,1.0,-2.644740743562579e-05,-0.00029998752870596945,-7.144798291847106e-05,1.2184696791468346e-07,0.0,0.0,0.0,1.2184696791468346e-07,0.0,0.0,0.0,1.2184696791468346e-07,-0.33102497458457947,-0.10990428179502368,9.794700622558594,8.999999999999999e-08,0.0,0.0,0.0,8.999999999999999e-08,0.0,0.0,0.0,8.999999999999999e-08
1719006713.259352,52034,1719006713,252009792,base_link,0.016751819764402896,-0.005751438960954235,-0.7956474159352479,-0.6055010448679552,1.0,0.0,0.0,0.0,1.0,0.0,0.0,0.0,1.0,-0.0004480243951547891,-0.0004905875539407134,0.00013639300595968967,1.2184696791468346e-07,0.0,0.0,0.0,1.2184696791468346e-07,0.0,0.0,0.0,1.2184696791468346e-07,-0.32948988676071167,-0.10666271299123643,9.806099891662598,8.999999999999999e-08,0.0,0.0,0.0,8.999999999999999e-08,0.0,0.0,0.0,8.999999999999999e-08
1719006713.2665913,52035,1719006713,257009792,base_link,0.016753106889643748,-0.005750665500429609,-0.7956475634492177,-0.6055008130602882,1.0,0.0,0.0,0.0,1.0,0.0,0.0,0.0,1.0,-0.0006955004646442831,-3.474733966868368e-05,0.00023563497234135866,1.2184696791468346e-07,0.0,0.0,0.0,1.2184696791468346e-07,0.0,0.0,0.0,1.2184696791468346e-07,-0.3334246873855591,-0.11008138954639315,9.799208641052246,8.999999999999999e-08,0.0,0.0,0.0,8.999999999999999e-08,0.0,0.0,0.0,8.999999999999999e-08
1719006713.273303,52036,1719006713,267009792,base_link,0.016753660396302706,-0.00574952457206953,-0.795648490679885,-0.60549963294853,1.0,0.0,0.0,0.0,1.0,0.0,0.0,0.0,1.0,-0.0003522660699672997,5.3357289289124344e-05,0.0002908320748247206,1.2184696791468346e-07,0.0,0.0,0.0,1.2184696791468346e-07,0.0,0.0,0.0,1.2184696791468346e-07,-0.3332188129425049,-0.10637984424829364,9.79732894897461,8.999999999999999e-08,0.0,0.0,0.0,8.999999999999999e-08,0.0,0.0,0.0,8.999999999999999e-08
1719006713.2762916,52037,1719006713,272009792,base_link,0.01675254021209463,-0.005749551572394356,-0.7956487119508396,-0.6054993273838782,1.0,0.0,0.0,0.0,1.0,0.0,0.0,0.0,1.0,1.7327838577330112e-05,-0.00019309943309053776,0.00023320451145991686,1.2184696791468346e-07,0.0,0.0,0.0,1.2184696791468346e-07,0.0,0.0,0.0,1.2184696791468346e-07,-0.3281135559082031,-0.09489547461271167,9.798652648925781,8.999999999999999e-08,0.0,0.0,0.0,8.999999999999999e-08,0.0,0.0,0.0,8.999999999999999e-08
1719006713.2823591,52038,1719006713,277009792,base_link,0.016752550419534502,-0.005748240081006709,-0.7956496602549311,-0.6054981261986958,1.0,0.0,0.0,0.0,1.0,0.0,0.0,0.0,1.0,-5.940266419202089e-06,-0.0002689899411052465,0.00026999023975804454,1.2184696791468346e-07,0.0,0.0,0.0,1.2184696791468346e-07,0.0,0.0,0.0,1.2184696791468346e-07,-0.3313378095626831,-0.09432352334260821,9.79310131072998,8.999999999999999e-08,0.0,0.0,0.0,8.999999999999999e-08,0.0,0.0,0.0,8.999999999999999e-08
1719006713.28663,52039,1719006713,282009792,base_link,0.01675079539842073,-0.005748169616744354,-0.7956490912724763,-0.6054990323559387,1.0,0.0,0.0,0.0,1.0,0.0,0.0,0.0,1.0,0.00010572996689006686,-0.00033744206302799284,0.00013297580881044274,1.2184696791468346e-07,0.0,0.0,0.0,1.2184696791468346e-07,0.0,0.0,0.0,1.2184696791468346e-07,-0.3247545659542084,-0.10910664498805879,9.813032150268555,8.999999999999999e-08,0.0,0.0,0.0,8.999999999999999e-08,0.0,0.0,0.0,8.999999999999999e-08
1719006713.292535,52040,1719006713,287009792,base_link,0.0167539896685567,-0.005747941431072338,-0.7956493863004158,-0.6054985687406051,1.0,0.0,0.0,0.0,1.0,0.0,0.0,0.0,1.0,-0.00021272117737680674,0.00014613554230891168,1.472543226554988e-05,1.2184696791468346e-07,0.0,0.0,0.0,1.2184696791468346e-07,0.0,0.0,0.0,1.2184696791468346e-07,-0.3177332878112793,-0.11693143099546312,9.806010246276855,8.999999999999999e-08,0.0,0.0,0.0,8.999999999999999e-08,0.0,0.0,0.0,8.999999999999999e-08
1719006713.2981179,52041,1719006713,292009792,base_link,0.016754711433337448,-0.005745183446672907,-0.7956474791555207,-0.6055008973539853,1.0,0.0,0.0,0.0,1.0,0.0,0.0,0.0,1.0,-0.0006482936441898346,0.00017600136925466353,-0.000492313236463815,1.2184696791468346e-07,0.0,0.0,0.0,1.2184696791468346e-07,0.0,0.0,0.0,1.2184696791468346e-07,-0.3308323323726654,-0.10890163481235385,9.78453540802002,8.999999999999999e-08,0.0,0.0,0.0,8.999999999999999e-08,0.0,0.0,0.0,8.999999999999999e-08
1719006713.3040977,52042,1719006713,297009792,base_link,0.016757078242299137,-0.005746407022368739,-0.7956473737883994,-0.6055010870148037,1.0,0.0,0.0,0.0,1.0,0.0,0.0,0.0,1.0,-0.0005720133194699883,0.0006471889209933578,-0.0005135773681104184,1.2184696791468346e-07,0.0,0.0,0.0,1.2184696791468346e-07,0.0,0.0,0.0,1.2184696791468346e-07,-0.3417108952999115,-0.10123065859079242,9.792313575744629,8.999999999999999e-08,0.0,0.0,0.0,8.999999999999999e-08,0.0,0.0,0.0,8.999999999999999e-08
1719006713.3101256,52043,1719006713,302009792,base_link,0.01675868212744833,-0.005745985883155884,-0.795645772208156,-0.6055031943572292,1.0,0.0,0.0,0.0,1.0,0.0,0.0,0.0,1.0,-0.0005196325946599245,0.0006219602073542773,-0.0007348405197262765,1.2184696791468346e-07,0.0,0.0,0.0,1.2184696791468346e-07,0.0,0.0,0.0,1.2184696791468346e-07,-0.333200603723526,-0.10028906911611438,9.782532691955566,8.999999999999999e-08,0.0,0.0,0.0,8.999999999999999e-08,0.0,0.0,0.0,8.999999999999999e-08
1719006713.3169184,52044,1719006713,312009792,base_link,0.01675954515002604,-0.0057466664889048846,-0.7956473000314146,-0.6055011607717886,1.0,0.0,0.0,0.0,1.0,0.0,0.0,0.0,1.0,-5.561916623264551e-05,0.00043179289787076414,0.00013851246330887074,1.2184696791468346e-07,0.0,0.0,0.0,1.2184696791468346e-07,0.0,0.0,0.0,1.2184696791468346e-07,-0.31372201442718506,-0.10045289248227952,9.814288139343262,8.999999999999999e-08,0.0,0.0,0.0,8.999999999999999e-08,0.0,0.0,0.0,8.999999999999999e-08
1719006713.3225064,52045,1719006713,317009792,base_link,0.016758705505778362,-0.005748349070122781,-0.795647257884566,-0.6055012029186371,1.0,0.0,0.0,0.0,1.0,0.0,0.0,0.0,1.0,0.000454852357506752,0.00020505028078332546,0.00031316670356318355,1.2184696791468346e-07,0.0,0.0,0.0,1.2184696791468346e-07,0.0,0.0,0.0,1.2184696791468346e-07,-0.3126346468925476,-0.11676993221044421,9.7937650680542,8.999999999999999e-08,0.0,0.0,0.0,8.999999999999999e-08,0.0,0.0,0.0,8.999999999999999e-08
1719006713.3293169,52046,1719006713,322009792,base_link,0.0167572609884001,-0.005747973370480977,-0.7956464465577321,-0.6055020985391679,1.0,0.0,0.0,0.0,1.0,0.0,0.0,0.0,1.0,0.0005222585750743747,-0.00024222719366662204,1.6876845620572597e-05,1.2184696791468346e-07,0.0,0.0,0.0,1.2184696791468346e-07,0.0,0.0,0.0,1.2184696791468346e-07,-0.32530125975608826,-0.09973011910915255,9.789766311645508,8.999999999999999e-08,0.0,0.0,0.0,8.999999999999999e-08,0.0,0.0,0.0,8.999999999999999e-08
1719006713.333223,52047,1719006713,327009792,base_link,0.016756357465335152,-0.0057476309273368255,-0.7956470471503234,-0.6055014979465766,1.0,0.0,0.0,0.0,1.0,0.0,0.0,0.0,1.0,0.00033774657640606165,-0.00038497598143294454,-3.5490607842802954e-05,1.2184696791468346e-07,0.0,0.0,0.0,1.2184696791468346e-07,0.0,0.0,0.0,1.2184696791468346e-07,-0.3255730867385864,-0.11672774702310441,9.805383682250977,8.999999999999999e-08,0.0,0.0,0.0,8.999999999999999e-08,0.0,0.0,0.0,8.999999999999999e-08
1719006713.3379421,52048,1719006713,332009792,base_link,0.016755303794122378,-0.0057474491690526226,-0.79564643602102,-0.605502277663274,1.0,0.0,0.0,0.0,1.0,0.0,0.0,0.0,1.0,0.00027642736677080393,-0.00030776415951550007,-6.291765021160241e-05,1.2184696791468346e-07,0.0,0.0,0.0,1.2184696791468346e-07,0.0,0.0,0.0,1.2184696791468346e-07,-0.3330376446247101,-0.12890614569187045,9.809255599975586,8.999999999999999e-08,0.0,0.0,0.0,8.999999999999999e-08,0.0,0.0,0.0,8.999999999999999e-08
1719006713.3432903,52049,1719006713,337009792,base_link,0.016756033790709477,-0.005747570011969837,-0.7956463833374594,-0.6055023303468346,1.0,0.0,0.0,0.0,1.0,0.0,0.0,0.0,1.0,-3.7308374885469675e-05,-0.00016539447824470702,-0.00013429560931399462,1.2184696791468346e-07,0.0,0.0,0.0,1.2184696791468346e-07,0.0,0.0,0.0,1.2184696791468346e-07,-0.33423909544944763,-0.11547670513391375,9.799302101135254,8.999999999999999e-08,0.0,0.0,0.0,8.999999999999999e-08,0.0,0.0,0.0,8.999999999999999e-08
1719006713.3495896,52050,1719006713,342009792,base_link,0.016757006131675512,-0.005744869650214854,-0.7956463201171866,-0.6055023935671074,1.0,0.0,0.0,0.0,1.0,0.0,0.0,0.0,1.0,-0.000333351461449638,-0.00022653842461295426,-0.00010315736290067432,1.2184696791468346e-07,0.0,0.0,0.0,1.2184696791468346e-07,0.0,0.0,0.0,1.2184696791468346e-07,-0.32228198647499084,-0.11584552377462268,9.799542427062988,8.999999999999999e-08,0.0,0.0,0.0,8.999999999999999e-08,0.0,0.0,0.0,8.999999999999999e-08
1719006713.3557088,52051,1719006713,347009792,base_link,0.016754235964202682,-0.005746061945046556,-0.7956462147500654,-0.6055027518153199,1.0,0.0,0.0,0.0,1.0,0.0,0.0,0.0,1.0,0.00013336935080587864,-0.00031719671096652746,-0.00020922825206071136,1.2184696791468346e-07,0.0,0.0,0.0,1.2184696791468346e-07,0.0,0.0,0.0,1.2184696791468346e-07,-0.31697070598602295,-0.1117398664355266,9.819497108459473,8.999999999999999e-08,0.0,0.0,0.0,8.999999999999999e-08,0.0,0.0,0.0,8.999999999999999e-08
1719006713.3614924,52052,1719006713,357009024,base_link,0.016752058816059293,-0.005743344790406619,-0.7956454350333679,-0.6055037844131084,1.0,0.0,0.0,0.0,1.0,0.0,0.0,0.0,1.0,4.720495780929923e-05,-0.0006176586030051112,-0.0001660399721004068,1.2184696791468346e-07,0.0,0.0,0.0,1.2184696791468346e-07,0.0,0.0,0.0,1.2184696791468346e-07,-0.3217763304710388,-0.12573620676994204,9.794561386108398,8.999999999999999e-08,0.0,0.0,0.0,8.999999999999999e-08,0.0,0.0,0.0,8.999999999999999e-08
1719006713.369113,52053,1719006713,362009024,base_link,0.016751609688704847,-0.00574459470788277,-0.7956453823498072,-0.605503837096669,1.0,0.0,0.0,0.0,1.0,0.0,0.0,0.0,1.0,0.000234082224778831,-0.00026663151220418513,-0.00010307721095159647,1.2184696791468346e-07,0.0,0.0,0.0,1.2184696791468346e-07,0.0,0.0,0.0,1.2184696791468346e-07,-0.325137734413147,-0.1018030121922481,9.798293113708496,8.999999999999999e-08,0.0,0.0,0.0,8.999999999999999e-08,0.0,0.0,0.0,8.999999999999999e-08
1719006713.373081,52054,1719006713,367009024,base_link,0.01675207659676101,-0.005744327997357038,-0.7956448344407766,-0.6055045535930936,1.0,0.0,0.0,0.0,1.0,0.0,0.0,0.0,1.0,0.00032851973082870245,-9.176970343105499e-05,-0.0003471102681942284,1.2184696791468346e-07,0.0,0.0,0.0,1.2184696791468346e-07,0.0,0.0,0.0,1.2184696791468346e-07,-0.3287924528121948,-0.13009588420390963,9.793351173400879,8.999999999999999e-08,0.0,0.0,0.0,8.999999999999999e-08,0.0,0.0,0.0,8.999999999999999e-08
1719006713.3797958,52055,1719006713,372009024,base_link,0.016749368003199677,-0.005745379692936287,-0.7956442233114732,-0.6055053333097911,1.0,0.0,0.0,0.0,1.0,0.0,0.0,0.0,1.0,0.0003486614441499114,9.847369801718742e-05,-3.9956299588084234e-05,1.2184696791468346e-07,0.0,0.0,0.0,1.2184696791468346e-07,0.0,0.0,0.0,1.2184696791468346e-07,-0.32042789459228516,-0.10813089460134385,9.821267127990723,8.999999999999999e-08,0.0,0.0,0.0,8.999999999999999e-08,0.0,0.0,0.0,8.999999999999999e-08
1719006713.3888156,52056,1719006713,382009024,base_link,0.016749263953167413,-0.005748781733864524,-0.7956434962783364,-0.6055062289303219,1.0,0.0,0.0,0.0,1.0,0.0,0.0,0.0,1.0,0.0005513958167284727,0.0003202547086402774,-0.0001821523765102029,1.2184696791468346e-07,0.0,0.0,0.0,1.2184696791468346e-07,0.0,0.0,0.0,1.2184696791468346e-07,-0.338835209608078,-0.12252376228570819,9.794918060302734,8.999999999999999e-08,0.0,0.0,0.0,8.999999999999999e-08,0.0,0.0,0.0,8.999999999999999e-08
1719006713.3905056,52057,1719006713,387009024,base_link,0.016749054206741623,-0.005747964150857865,-0.7956441074076398,-0.6055056178010185,1.0,0.0,0.0,0.0,1.0,0.0,0.0,0.0,1.0,0.0004120582016184926,4.949721187585963e-05,-0.00016373497783206403,1.2184696791468346e-07,0.0,0.0,0.0,1.2184696791468346e-07,0.0,0.0,0.0,1.2184696791468346e-07,-0.32522568106651306,-0.11810802668332934,9.800310134887695,8.999999999999999e-08,0.0,0.0,0.0,8.999999999999999e-08,0.0,0.0,0.0,8.999999999999999e-08
1719006713.3966289,52058,1719006713,392009024,base_link,0.01674892941255736,-0.005746761319314035,-0.7956447185369432,-0.6055048380843211,1.0,0.0,0.0,0.0,1.0,0.0,0.0,0.0,1.0,-8.55099642649293e-05,-0.00020293792476877567,0.00017356412718072536,1.2184696791468346e-07,0.0,0.0,0.0,1.2184696791468346e-07,0.0,0.0,0.0,1.2184696791468346e-07,-0.3267957866191864,-0.11140812188386796,9.803322792053223,8.999999999999999e-08,0.0,0.0,0.0,8.999999999999999e-08,0.0,0.0,0.0,8.999999999999999e-08
1719006713.4024158,52059,1719006713,397009024,base_link,0.016748624177177908,-0.005744390229813043,-0.7956448239040644,-0.6055047327171998,1.0,0.0,0.0,0.0,1.0,0.0,0.0,0.0,1.0,-0.0005274676950648427,-0.0004909393610432744,0.00011844234541058546,1.2184696791468346e-07,0.0,0.0,0.0,1.2184696791468346e-07,0.0,0.0,0.0,1.2184696791468346e-07,-0.321847528219223,-0.12126240879297137,9.796950340270996,8.999999999999999e-08,0.0,0.0,0.0,8.999999999999999e-08,0.0,0.0,0.0,8.999999999999999e-08
1719006713.406742,52060,1719006713,402009024,base_link,0.016749830630716535,-0.005743307582641918,-0.7956444656558521,-0.605505006671715,1.0,0.0,0.0,0.0,1.0,0.0,0.0,0.0,1.0,-0.0005561630823649466,-0.0003514277923386544,4.104472463950519e-05,1.2184696791468346e-07,0.0,0.0,0.0,1.2184696791468346e-07,0.0,0.0,0.0,1.2184696791468346e-07,-0.33399128913879395,-0.12446882575750232,9.791410446166992,8.999999999999999e-08,0.0,0.0,0.0,8.999999999999999e-08,0.0,0.0,0.0,8.999999999999999e-08
1719006713.4126234,52061,1719006713,407009024,base_link,0.01675044241856445,-0.005742751112532672,-0.795644212774761,-0.6055055124338973,1.0,0.0,0.0,0.0,1.0,0.0,0.0,0.0,1.0,-0.0004651539493352175,0.00014015975466463712,-0.0001192075142171234,1.2184696791468346e-07,0.0,0.0,0.0,1.2184696791468346e-07,0.0,0.0,0.0,1.2184696791468346e-07,-0.3213130831718445,-0.1090506836771953,9.814813613891602,8.999999999999999e-08,0.0,0.0,0.0,8.999999999999999e-08,0.0,0.0,0.0,8.999999999999999e-08
1719006713.4184601,52062,1719006713,412009024,base_link,0.01675240191774795,-0.005742472218933542,-0.7956441074076398,-0.6055054492136245,1.0,0.0,0.0,0.0,1.0,0.0,0.0,0.0,1.0,-0.00023436517221853137,0.00025958591140806675,-2.2368505597114593e-05,1.2184696791468346e-07,0.0,0.0,0.0,1.2184696791468346e-07,0.0,0.0,0.0,1.2184696791468346e-07,-0.32676953077316284,-0.11340897530317186,9.807154655456543,8.999999999999999e-08,0.0,0.0,0.0,8.999999999999999e-08,0.0,0.0,0.0,8.999999999999999e-08
1719006713.424332,52063,1719006713,417009024,base_link,0.016750562273664903,-0.005742415254833602,-0.7956447606837918,-0.6055046273500785,1.0,0.0,0.0,0.0,1.0,0.0,0.0,0.0,1.0,8.872110629454255e-05,-2.564235182944685e-05,3.67954489775002e-05,1.2184696791468346e-07,0.0,0.0,0.0,1.2184696791468346e-07,0.0,0.0,0.0,1.2184696791468346e-07,-0.33039554953575134,-0.12044007331132768,9.807044982910156,8.999999999999999e-08,0.0,0.0,0.0,8.999999999999999e-08,0.0,0.0,0.0,8.999999999999999e-08
1719006713.4300761,52064,1719006713,422009024,base_link,0.016750629445204716,-0.005742611501096981,-0.795643970430382,-0.6055058390719732,1.0,0.0,0.0,0.0,1.0,0.0,0.0,0.0,1.0,0.0003721541725099087,-0.00014197293785400691,-0.00023623908055014906,1.2184696791468346e-07,0.0,0.0,0.0,1.2184696791468346e-07,0.0,0.0,0.0,1.2184696791468346e-07,-0.3354933261871338,-0.10930867493152499,9.793892860412598,8.999999999999999e-08,0.0,0.0,0.0,8.999999999999999e-08,0.0,0.0,0.0,8.999999999999999e-08
1719006713.4365196,52065,1719006713,432009024,base_link,0.016748399284228433,-0.005742615781636282,-0.7956434014479272,-0.6055065766418222,1.0,0.0,0.0,0.0,1.0,0.0,0.0,0.0,1.0,0.00026495708152651787,-0.00017520101391710344,-0.00030584665364585817,1.2184696791468346e-07,0.0,0.0,0.0,1.2184696791468346e-07,0.0,0.0,0.0,1.2184696791468346e-07,-0.31955671310424805,-0.10057475417852281,9.80579662322998,8.999999999999999e-08,0.0,0.0,0.0,8.999999999999999e-08,0.0,0.0,0.0,8.999999999999999e-08
1719006713.4422445,52066,1719006713,437009024,base_link,0.01674831729543719,-0.005739628953020327,-0.7956426954882146,-0.6055075354826258,1.0,0.0,0.0,0.0,1.0,0.0,0.0,0.0,1.0,-0.00031500434852205217,-0.00040280682151205843,-0.00024329245206899936,1.2184696791468346e-07,0.0,0.0,0.0,1.2184696791468346e-07,0.0,0.0,0.0,1.2184696791468346e-07,-0.32674098014831543,-0.12030623853206514,9.802799224853516,8.999999999999999e-08,0.0,0.0,0.0,8.999999999999999e-08,0.0,0.0,0.0,8.999999999999999e-08
1719006713.4498827,52067,1719006713,442009024,base_link,0.016746918876174487,-0.005738372120826842,-0.7956426217312298,-0.6055076092396107,1.0,0.0,0.0,0.0,1.0,0.0,0.0,0.0,1.0,-0.00026011018780991435,-0.0006395709933713078,-0.00010440114419907323,1.2184696791468346e-07,0.0,0.0,0.0,1.2184696791468346e-07,0.0,0.0,0.0,1.2184696791468346e-07,-0.3260253667831421,-0.1193498969078052,9.790005683898926,8.999999999999999e-08,0.0,0.0,0.0,8.999999999999999e-08,0.0,0.0,0.0,8.999999999999999e-08
1719006713.4531114,52068,1719006713,447009024,base_link,0.016744761484366336,-0.00573791904220535,-0.7956427481717753,-0.6055075670927621,1.0,0.0,0.0,0.0,1.0,0.0,0.0,0.0,1.0,0.00021251803264021873,-0.0005441692192107439,0.00018476246623322373,1.2184696791468346e-07,0.0,0.0,0.0,1.2184696791468346e-07,0.0,0.0,0.0,1.2184696791468346e-07,-0.34288179874420166,-0.10476234555244326,9.79965877532959,8.999999999999999e-08,0.0,0.0,0.0,8.999999999999999e-08,0.0,0.0,0.0,8.999999999999999e-08
1719006713.4577255,52069,1719006713,452009024,base_link,0.01674386586383548,-0.005738848907050622,-0.7956435173517606,-0.6055065450316858,1.0,0.0,0.0,0.0,1.0,0.0,0.0,0.0,1.0,0.00037307851016521454,-0.0004374601121526211,0.00032556883525103336,1.2184696791468346e-07,0.0,0.0,0.0,1.2184696791468346e-07,0.0,0.0,0.0,1.2184696791468346e-07,-0.3431805372238159,-0.10858777165412782,9.805320739746094,8.999999999999999e-08,0.0,0.0,0.0,8.999999999999999e-08,0.0,0.0,0.0,8.999999999999999e-08
1719006713.4636128,52070,1719006713,457009024,base_link,0.01674367027611661,-0.0057378670171892195,-0.7956430010528663,-0.6055072299179741,1.0,0.0,0.0,0.0,1.0,0.0,0.0,0.0,1.0,0.00011886656284332275,-0.0002600550651550293,-7.552967872470615e-05,1.2184696791468346e-07,0.0,0.0,0.0,1.2184696791468346e-07,0.0,0.0,0.0,1.2184696791468346e-07,-0.32549622654914856,-0.1289660930633533,9.77949333190918,8.999999999999999e-08,0.0,0.0,0.0,8.999999999999999e-08,0.0,0.0,0.0,8.999999999999999e-08
1719006713.4711993,52071,1719006713,462009024,base_link,0.016743248807631502,-0.005736976665014427,-0.7956424952906842,-0.6055079042675503,1.0,0.0,0.0,0.0,1.0,0.0,0.0,0.0,1.0,-0.00022170471493154764,-9.594616130925719e-05,-0.0002997539995703846,1.2184696791468346e-07,0.0,0.0,0.0,1.2184696791468346e-07,0.0,0.0,0.0,1.2184696791468346e-07,-0.31985121965408325,-0.11001967638730883,9.799230575561523,8.999999999999999e-08,0.0,0.0,0.0,8.999999999999999e-08,0.0,0.0,0.0,8.999999999999999e-08
1719006713.4750252,52072,1719006713,467009024,base_link,0.016744395333619898,-0.005735384962938633,-0.79564148376632,-0.6055092529667027,1.0,0.0,0.0,0.0,1.0,0.0,0.0,0.0,1.0,-0.00034832433448173106,-8.06707976153121e-05,-0.00040020636515691876,1.2184696791468346e-07,0.0,0.0,0.0,1.2184696791468346e-07,0.0,0.0,0.0,1.2184696791468346e-07,-0.3268830478191376,-0.10675532370805621,9.787819862365723,8.999999999999999e-08,0.0,0.0,0.0,8.999999999999999e-08,0.0,0.0,0.0,8.999999999999999e-08
1719006713.4815025,52073,1719006713,477009024,base_link,0.016743976828585076,-0.0057356243438672835,-0.7956424004602751,-0.6055079990979594,1.0,0.0,0.0,0.0,1.0,0.0,0.0,0.0,1.0,-0.00013765512267127633,4.898619954474271e-05,5.786301335319876e-05,1.2184696791468346e-07,0.0,0.0,0.0,1.2184696791468346e-07,0.0,0.0,0.0,1.2184696791468346e-07,-0.3397625684738159,-0.11763598024845004,9.79277515411377,8.999999999999999e-08,0.0,0.0,0.0,8.999999999999999e-08,0.0,0.0,0.0,8.999999999999999e-08
1719006713.4878297,52074,1719006713,482009024,base_link,0.016742843802759092,-0.005734852858976181,-0.795641894698093,-0.6055086734475356,1.0,0.0,0.0,0.0,1.0,0.0,0.0,0.0,1.0,9.493238758295774e-05,-0.0001762937754392624,-4.646764136850832e-05,1.2184696791468346e-07,0.0,0.0,0.0,1.2184696791468346e-07,0.0,0.0,0.0,1.2184696791468346e-07,-0.330413281917572,-0.11952219903468965,9.81191635131836,8.999999999999999e-08,0.0,0.0,0.0,8.999999999999999e-08,0.0,0.0,0.0,8.999999999999999e-08
1719006713.493196,52075,1719006713,487009024,base_link,0.016741632410136657,-0.005734994775317652,-0.795641083371259,-0.6055097376554605,1.0,0.0,0.0,0.0,1.0,0.0,0.0,0.0,1.0,0.00015632208669558167,-0.00026010721921920776,-0.0001601428666617721,1.2184696791468346e-07,0.0,0.0,0.0,1.2184696791468346e-07,0.0,0.0,0.0,1.2184696791468346e-07,-0.3226335942745209,-0.10339362919330478,9.796255111694336,8.999999999999999e-08,0.0,0.0,0.0,8.999999999999999e-08,0.0,0.0,0.0,8.999999999999999e-08
1719006713.50218,52076,1719006713,492009024,base_link,0.01674120369766196,-0.005734156448158991,-0.795640082383607,-0.6055112444052947,1.0,0.0,0.0,0.0,1.0,0.0,0.0,0.0,1.0,-3.2229931093752384e-05,-0.000269853393547237,-0.0005663631018251181,1.2184696791468346e-07,0.0,0.0,0.0,1.2184696791468346e-07,0.0,0.0,0.0,1.2184696791468346e-07,-0.33627110719680786,-0.12038366496562838,9.799603462219238,8.999999999999999e-08,0.0,0.0,0.0,8.999999999999999e-08,0.0,0.0,0.0,8.999999999999999e-08
1719006713.5040274,52077,1719006713,497009024,base_link,0.016740909657539146,-0.005734353023694624,-0.7956394501808793,-0.6055120451954165,1.0,0.0,0.0,0.0,1.0,0.0,0.0,0.0,1.0,0.00017463252879679203,5.058330134488635e-05,-0.0005820808000862598,1.2184696791468346e-07,0.0,0.0,0.0,1.2184696791468346e-07,0.0,0.0,0.0,1.2184696791468346e-07,-0.3278391361236572,-0.10635736584663272,9.801602363586426,8.999999999999999e-08,0.0,0.0,0.0,8.999999999999999e-08,0.0,0.0,0.0,8.999999999999999e-08
1719006713.510046,52078,1719006713,507009024,base_link,0.016739962011992158,-0.005735990823885976,-0.7956389022718486,-0.6055127616918411,1.0,0.0,0.0,0.0,1.0,0.0,0.0,0.0,1.0,0.0003451297525316477,3.631523577496406e-05,-0.00025299712433479726,1.2184696791468346e-07,0.0,0.0,0.0,1.2184696791468346e-07,0.0,0.0,0.0,1.2184696791468346e-07,-0.3355438709259033,-0.11361584812402604,9.819934844970703,8.999999999999999e-08,0.0,0.0,0.0,8.999999999999999e-08,0.0,0.0,0.0,8.999999999999999e-08
1719006713.5164137,52079,1719006713,512009024,base_link,0.016740075610919787,-0.005732192009891678,-0.795638354362818,-0.6055133938945688,1.0,0.0,0.0,0.0,1.0,0.0,0.0,0.0,1.0,-0.0002837073407135904,-0.0002914427313953638,-8.548347977921363e-05,1.2184696791468346e-07,0.0,0.0,0.0,1.2184696791468346e-07,0.0,0.0,0.0,1.2184696791468346e-07,-0.32934683561325073,-0.10143506526946902,9.791437149047852,8.999999999999999e-08,0.0,0.0,0.0,8.999999999999999e-08,0.0,0.0,0.0,8.999999999999999e-08
1719006713.5222077,52080,1719006713,517009024,base_link,0.016742218844021016,-0.00573155289244668,-0.7956382279222725,-0.6055136046288113,1.0,0.0,0.0,0.0,1.0,0.0,0.0,0.0,1.0,-0.000688838423229754,-4.006951348856092e-05,-5.554693052545189e-05,1.2184696791468346e-07,0.0,0.0,0.0,1.2184696791468346e-07,0.0,0.0,0.0,1.2184696791468346e-07,-0.30863428115844727,-0.1137293502688396,9.794386863708496,8.999999999999999e-08,0.0,0.0,0.0,8.999999999999999e-08,0.0,0.0,0.0,8.999999999999999e-08
1719006713.5288517,52081,1719006713,522009024,base_link,0.016743051902823613,-0.00573036158543174,-0.7956382806058331,-0.6055135519452507,1.0,0.0,0.0,0.0,1.0,0.0,0.0,0.0,1.0,-0.0008515737717971206,8.441206591669467e-05,-0.00018567036022432148,1.2184696791468346e-07,0.0,0.0,0.0,1.2184696791468346e-07,0.0,0.0,0.0,1.2184696791468346e-07,-0.32360294461250305,-0.11115840077400088,9.798805236816406,8.999999999999999e-08,0.0,0.0,0.0,8.999999999999999e-08,0.0,0.0,0.0,8.999999999999999e-08
1719006713.5375452,52082,1719006713,527009024,base_link,0.016744127964549656,-0.005727093887583129,-0.7956375008891358,-0.6055145845430393,1.0,0.0,0.0,0.0,1.0,0.0,0.0,0.0,1.0,-0.0009334463393315673,-8.981609425973149e-05,-0.000134707719553262,1.2184696791468346e-07,0.0,0.0,0.0,1.2184696791468346e-07,0.0,0.0,0.0,1.2184696791468346e-07,-0.3260892331600189,-0.1123274266719806,9.802618026733398,8.999999999999999e-08,0.0,0.0,0.0,8.999999999999999e-08,0.0,0.0,0.0,8.999999999999999e-08
1719006713.5421696,52083,1719006713,537009024,base_link,0.016745607055514585,-0.0057266131500923025,-0.7956389128085608,-0.6055125825677349,1.0,0.0,0.0,0.0,1.0,0.0,0.0,0.0,1.0,-0.00043253295007161796,5.0773480325005976e-05,0.00023623986635357141,1.2184696791468346e-07,0.0,0.0,0.0,1.2184696791468346e-07,0.0,0.0,0.0,1.2184696791468346e-07,-0.34220975637435913,-0.10690902173519015,9.796142578125,8.999999999999999e-08,0.0,0.0,0.0,8.999999999999999e-08,0.0,0.0,0.0,8.999999999999999e-08
1719006713.5490234,52084,1719006713,542009024,base_link,0.01674581778975714,-0.005725440940868093,-0.7956391867630761,-0.6055123929069167,1.0,0.0,0.0,0.0,1.0,0.0,0.0,0.0,1.0,-0.00017521210247650743,0.0001243307924596593,0.00031746504828333855,1.2184696791468346e-07,0.0,0.0,0.0,1.2184696791468346e-07,0.0,0.0,0.0,1.2184696791468346e-07,-0.3270474672317505,-0.10142091661691545,9.807119369506836,8.999999999999999e-08,0.0,0.0,0.0,8.999999999999999e-08,0.0,0.0,0.0,8.999999999999999e-08
1719006713.5542533,52085,1719006713,547009024,base_link,0.01674504696341055,-0.005725966788657718,-0.7956382911425453,-0.6055133728211445,1.0,0.0,0.0,0.0,1.0,0.0,0.0,0.0,1.0,7.659371476620436e-06,0.00014429703878704456,-0.0001193507923744619,1.2184696791468346e-07,0.0,0.0,0.0,1.2184696791468346e-07,0.0,0.0,0.0,1.2184696791468346e-07,-0.32104024291038513,-0.10402214527130006,9.812761306762695,8.999999999999999e-08,0.0,0.0,0.0,8.999999999999999e-08,0.0,0.0,0.0,8.999999999999999e-08
1719006713.5563896,52086,1719006713,552009024,base_link,0.016747945547062434,-0.005725402086742121,-0.7956390181756821,-0.6055125614943108,1.0,0.0,0.0,0.0,1.0,0.0,0.0,0.0,1.0,-0.0002547202748246491,0.00024984386982396245,6.286194548010796e-06,1.2184696791468346e-07,0.0,0.0,0.0,1.2184696791468346e-07,0.0,0.0,0.0,1.2184696791468346e-07,-0.32104024291038513,-0.10402214527130006,9.812761306762695,8.999999999999999e-08,0.0,0.0,0.0,8.999999999999999e-08,0.0,0.0,0.0,8.999999999999999e-08
1719006713.5620525,52087,1719006713,557008512,base_link,0.01674723003845451,-0.005724750456951473,-0.7956380487981664,-0.6055138680466146,1.0,0.0,0.0,0.0,1.0,0.0,0.0,0.0,1.0,-0.00021786359138786793,0.0002355762699153274,-0.00011373704182915392,1.2184696791468346e-07,0.0,0.0,0.0,1.2184696791468346e-07,0.0,0.0,0.0,1.2184696791468346e-07,-0.32736119627952576,-0.11035839468240617,9.807018280029297,8.999999999999999e-08,0.0,0.0,0.0,8.999999999999999e-08,0.0,0.0,0.0,8.999999999999999e-08
1719006713.5690897,52088,1719006713,562008512,base_link,0.016749208964700998,-0.005726944068707564,-0.7956390708592427,-0.605512255929659,1.0,0.0,0.0,0.0,1.0,0.0,0.0,0.0,1.0,3.9747683331370354e-05,0.0006255919579416513,-4.1143153794109896e-05,1.2184696791468346e-07,0.0,0.0,0.0,1.2184696791468346e-07,0.0,0.0,0.0,1.2184696791468346e-07,-0.31308484077453613,-0.11779907345771669,9.814865112304688,8.999999999999999e-08,0.0,0.0,0.0,8.999999999999999e-08,0.0,0.0,0.0,8.999999999999999e-08
1719006713.577937,52089,1719006713,567008512,base_link,0.016750406527888766,-0.005727859116301405,-0.7956371321042113,-0.6055147847405696,1.0,0.0,0.0,0.0,1.0,0.0,0.0,0.0,1.0,-7.786694914102554e-05,0.0006608355324715376,-0.0002593568642623723,1.2184696791468346e-07,0.0,0.0,0.0,1.2184696791468346e-07,0.0,0.0,0.0,1.2184696791468346e-07,-0.32830536365509033,-0.11571146547794223,9.80191421508789,8.999999999999999e-08,0.0,0.0,0.0,8.999999999999999e-08,0.0,0.0,0.0,8.999999999999999e-08
1719006713.5821598,52090,1719006713,577008512,base_link,0.016749590591243375,-0.005729114960678129,-0.7956384808033636,-0.6055130988666292,1.0,0.0,0.0,0.0,1.0,0.0,0.0,0.0,1.0,0.00028861325699836016,0.00027850226615555584,0.00011745217489078637,1.2184696791468346e-07,0.0,0.0,0.0,1.2184696791468346e-07,0.0,0.0,0.0,1.2184696791468346e-07,-0.33111733198165894,-0.1167016327381122,9.815277099609375,8.999999999999999e-08,0.0,0.0,0.0,8.999999999999999e-08,0.0,0.0,0.0,8.999999999999999e-08
