Time,header.seq,header.stamp.secs,header.stamp.nsecs,header.frame_id,orientation.x,orientation.y,orientation.z,orientation.w,orientation_covariance_0,orientation_covariance_1,orientation_covariance_2,orientation_covariance_3,orientation_covariance_4,orientation_covariance_5,orientation_covariance_6,orientation_covariance_7,orientation_covariance_8,angular_velocity.x,angular_velocity.y,angular_velocity.z,angular_velocity_covariance_0,angular_velocity_covariance_1,angular_velocity_covariance_2,angular_velocity_covariance_3,angular_velocity_covariance_4,angular_velocity_covariance_5,angular_velocity_covariance_6,angular_velocity_covariance_7,angular_velocity_covariance_8,linear_acceleration.x,linear_acceleration.y,linear_acceleration.z,linear_acceleration_covariance_0,linear_acceleration_covariance_1,linear_acceleration_covariance_2,linear_acceleration_covariance_3,linear_acceleration_covariance_4,linear_acceleration_covariance_5,linear_acceleration_covariance_6,linear_acceleration_covariance_7,linear_acceleration_covariance_8
1719006570.8734965,27661,1719006570,866261248,base_link,0.017831859428547123,-0.0029338783447911913,-0.8747627509514571,-0.4842144161687155,1.0,0.0,0.0,0.0,1.0,0.0,0.0,0.0,1.0,-0.00048425569548271596,0.00011740675836335872,0.0003408733173273504,1.2184696791468346e-07,0.0,0.0,0.0,1.2184696791468346e-07,0.0,0.0,0.0,1.2184696791468346e-07,-0.3479313552379608,-0.11990938335657,9.800314903259277,8.999999999999999e-08,0.0,0.0,0.0,8.999999999999999e-08,0.0,0.0,0.0,8.999999999999999e-08
1719006570.87876,27662,1719006570,876261248,base_link,0.017831777110483626,-0.002932780551096383,-0.8747646686330643,-0.48421081261316784,1.0,0.0,0.0,0.0,1.0,0.0,0.0,0.0,1.0,-0.0003751906333491206,-5.369543214328579e-05,0.000689714215695858,1.2184696791468346e-07,0.0,0.0,0.0,1.2184696791468346e-07,0.0,0.0,0.0,1.2184696791468346e-07,-0.3358880579471588,-0.11569585651159167,9.797341346740723,8.999999999999999e-08,0.0,0.0,0.0,8.999999999999999e-08,0.0,0.0,0.0,8.999999999999999e-08
1719006570.8847423,27663,1719006570,881261248,base_link,0.01783036519105851,-0.002931272484173102,-0.8747646686330643,-0.48421106549425896,1.0,0.0,0.0,0.0,1.0,0.0,0.0,0.0,1.0,-0.00021955324336886406,-0.0005100388079881668,0.000237875443417579,1.2184696791468346e-07,0.0,0.0,0.0,1.2184696791468346e-07,0.0,0.0,0.0,1.2184696791468346e-07,-0.33511248230934143,-0.11687249690294146,9.796463012695312,8.999999999999999e-08,0.0,0.0,0.0,8.999999999999999e-08,0.0,0.0,0.0,8.999999999999999e-08
1719006570.891853,27664,1719006570,886261248,base_link,0.0178288380263445,-0.0029322253980761546,-0.8747638256960941,-0.48421258278080537,1.0,0.0,0.0,0.0,1.0,0.0,0.0,0.0,1.0,0.00025544961681589484,-0.0005996091058477759,-0.0003692950704135,1.2184696791468346e-07,0.0,0.0,0.0,1.2184696791468346e-07,0.0,0.0,0.0,1.2184696791468346e-07,-0.34612107276916504,-0.12235351651906848,9.795238494873047,8.999999999999999e-08,0.0,0.0,0.0,8.999999999999999e-08,0.0,0.0,0.0,8.999999999999999e-08
1719006570.8976102,27665,1719006570,891261248,base_link,0.01782672278138486,-0.002934717330494361,-0.8747636781821244,-0.48421289888216923,1.0,0.0,0.0,0.0,1.0,0.0,0.0,0.0,1.0,0.0006281276582740247,-0.00025254386127926415,-0.00035692274104803795,1.2184696791468346e-07,0.0,0.0,0.0,1.2184696791468346e-07,0.0,0.0,0.0,1.2184696791468346e-07,-0.3372093737125397,-0.11961295455694078,9.812640190124512,8.999999999999999e-08,0.0,0.0,0.0,8.999999999999999e-08,0.0,0.0,0.0,8.999999999999999e-08
1719006570.904116,27666,1719006570,896261248,base_link,0.017826128115694152,-0.0029345823288702247,-0.8747627509514571,-0.48421458475610957,1.0,0.0,0.0,0.0,1.0,0.0,0.0,0.0,1.0,0.00032698753057047725,-0.00011331700079608714,-0.0004911341238766909,1.2184696791468346e-07,0.0,0.0,0.0,1.2184696791468346e-07,0.0,0.0,0.0,1.2184696791468346e-07,-0.3372473120689392,-0.1407410502433765,9.79670524597168,8.999999999999999e-08,0.0,0.0,0.0,8.999999999999999e-08,0.0,0.0,0.0,8.999999999999999e-08
1719006570.909065,27667,1719006570,901261248,base_link,0.017827354325568014,-0.002933867149534554,-0.8747628773920026,-0.48421437402186707,1.0,0.0,0.0,0.0,1.0,0.0,0.0,0.0,1.0,-3.2765441574156284e-05,9.061617311090228e-05,-0.00022507677203975618,1.2184696791468346e-07,0.0,0.0,0.0,1.2184696791468346e-07,0.0,0.0,0.0,1.2184696791468346e-07,-0.33358293771743774,-0.11301743239164232,9.803666114807129,8.999999999999999e-08,0.0,0.0,0.0,8.999999999999999e-08,0.0,0.0,0.0,8.999999999999999e-08
1719006570.913076,27668,1719006570,906261248,base_link,0.017827495912637232,-0.0029330090660406533,-0.8747628984654269,-0.48421435294844284,1.0,0.0,0.0,0.0,1.0,0.0,0.0,0.0,1.0,-0.00026952422922477126,-5.7908357121050385e-05,-0.00020105988369323313,1.2184696791468346e-07,0.0,0.0,0.0,1.2184696791468346e-07,0.0,0.0,0.0,1.2184696791468346e-07,-0.3367898762226105,-0.11290359497070193,9.792460441589355,8.999999999999999e-08,0.0,0.0,0.0,8.999999999999999e-08,0.0,0.0,0.0,8.999999999999999e-08
1719006570.919316,27669,1719006570,911261248,base_link,0.017826211750846664,-0.0029328088685102267,-0.8747622662626993,-0.48421549091335264,1.0,0.0,0.0,0.0,1.0,0.0,0.0,0.0,1.0,-0.00042153269168920815,-0.00022065170924179256,-4.6103436034172746e-05,1.2184696791468346e-07,0.0,0.0,0.0,1.2184696791468346e-07,0.0,0.0,0.0,1.2184696791468346e-07,-0.33566248416900635,-0.12713512778282046,9.79079532623291,8.999999999999999e-08,0.0,0.0,0.0,8.999999999999999e-08,0.0,0.0,0.0,8.999999999999999e-08
1719006570.92523,27670,1719006570,921261248,base_link,0.017826466607571253,-0.0029278151255061943,-0.8747621398221537,-0.4842157859412922,1.0,0.0,0.0,0.0,1.0,0.0,0.0,0.0,1.0,-0.0007418333552777767,-0.00044337596045807004,-7.216667290776963e-05,1.2184696791468346e-07,0.0,0.0,0.0,1.2184696791468346e-07,0.0,0.0,0.0,1.2184696791468346e-07,-0.33409908413887024,-0.11049757897853732,9.792960166931152,8.999999999999999e-08,0.0,0.0,0.0,8.999999999999999e-08,0.0,0.0,0.0,8.999999999999999e-08
1719006570.9310567,27671,1719006570,926261248,base_link,0.017826416558188646,-0.002928651477031331,-0.874762076601881,-0.48421584916156496,1.0,0.0,0.0,0.0,1.0,0.0,0.0,0.0,1.0,-0.00036542973248288035,-9.427907934878026e-05,-0.0002894369827117771,1.2184696791468346e-07,0.0,0.0,0.0,1.2184696791468346e-07,0.0,0.0,0.0,1.2184696791468346e-07,-0.34834128618240356,-0.1146812066435802,9.798467636108398,8.999999999999999e-08,0.0,0.0,0.0,8.999999999999999e-08,0.0,0.0,0.0,8.999999999999999e-08
1719006570.9372766,27672,1719006570,931261248,base_link,0.01782755518164295,-0.002927818418228734,-0.8747618658676384,-0.48421622848320156,1.0,0.0,0.0,0.0,1.0,0.0,0.0,0.0,1.0,-0.00013433012645691633,0.0002870831231120974,-7.621588883921508e-05,1.2184696791468346e-07,0.0,0.0,0.0,1.2184696791468346e-07,0.0,0.0,0.0,1.2184696791468346e-07,-0.3281435966491699,-0.12444912642240404,9.815593719482422,8.999999999999999e-08,0.0,0.0,0.0,8.999999999999999e-08,0.0,0.0,0.0,8.999999999999999e-08
1719006570.9430006,27673,1719006570,936261248,base_link,0.01782635663063842,-0.0029294134130270675,-0.8747621608955779,-0.48421568057417086,1.0,0.0,0.0,0.0,1.0,0.0,0.0,0.0,1.0,0.00025445694336667657,-0.00033436741796322167,4.686706233769696e-06,1.2184696791468346e-07,0.0,0.0,0.0,1.2184696791468346e-07,0.0,0.0,0.0,1.2184696791468346e-07,-0.33201172947883606,-0.10074736922979234,9.80908203125,8.999999999999999e-08,0.0,0.0,0.0,8.999999999999999e-08,0.0,0.0,0.0,8.999999999999999e-08
1719006570.9495225,27674,1719006570,941261248,base_link,0.017823617085485213,-0.0029279027119257545,-0.8747622873361235,-0.4842156384273224,1.0,0.0,0.0,0.0,1.0,0.0,0.0,0.0,1.0,-6.380904233083129e-05,-0.000680361466947943,6.221816875040539e-05,1.2184696791468346e-07,0.0,0.0,0.0,1.2184696791468346e-07,0.0,0.0,0.0,1.2184696791468346e-07,-0.32976895570755005,-0.11004655063152194,9.794283866882324,8.999999999999999e-08,0.0,0.0,0.0,8.999999999999999e-08,0.0,0.0,0.0,8.999999999999999e-08
1719006570.955578,27675,1719006570,951261248,base_link,0.017825672402894628,-0.0029248674802884638,-0.8747622662626993,-0.4842156595007467,1.0,0.0,0.0,0.0,1.0,0.0,0.0,0.0,1.0,-0.0004957477794960141,-0.00018036193796433508,-3.191293217241762e-05,1.2184696791468346e-07,0.0,0.0,0.0,1.2184696791468346e-07,0.0,0.0,0.0,1.2184696791468346e-07,-0.3258049190044403,-0.10754916071891665,9.797234535217285,8.999999999999999e-08,0.0,0.0,0.0,8.999999999999999e-08,0.0,0.0,0.0,8.999999999999999e-08
1719006570.96125,27676,1719006570,956260480,base_link,0.01782704876091631,-0.0029237821989393066,-0.8747630038325481,-0.4842143318750185,1.0,0.0,0.0,0.0,1.0,0.0,0.0,0.0,1.0,-0.0007610415923409164,0.0001874887966550887,0.000245557923335582,1.2184696791468346e-07,0.0,0.0,0.0,1.2184696791468346e-07,0.0,0.0,0.0,1.2184696791468346e-07,-0.3460124731063843,-0.11573495715856433,9.798416137695312,8.999999999999999e-08,0.0,0.0,0.0,8.999999999999999e-08,0.0,0.0,0.0,8.999999999999999e-08
1719006570.9702144,27677,1719006570,961260480,base_link,0.017824350704067106,-0.0029231769965364714,-0.8747637624758214,-0.4842128145884722,1.0,0.0,0.0,0.0,1.0,0.0,0.0,0.0,1.0,-0.00033281423384323716,-0.00044817331945523614,0.0005677357548847796,1.2184696791468346e-07,0.0,0.0,0.0,1.2184696791468346e-07,0.0,0.0,0.0,1.2184696791468346e-07,-0.33489906787872314,-0.1268301010131824,9.80858325958252,8.999999999999999e-08,0.0,0.0,0.0,8.999999999999999e-08,0.0,0.0,0.0,8.999999999999999e-08
1719006570.9730144,27678,1719006570,966260480,base_link,0.017822118896729553,-0.002921219143714239,-0.8747642050177307,-0.4842121191654717,1.0,0.0,0.0,0.0,1.0,0.0,0.0,0.0,1.0,-0.0003322875127196312,-0.0006592926220037042,0.0005585289327427746,1.2184696791468346e-07,0.0,0.0,0.0,1.2184696791468346e-07,0.0,0.0,0.0,1.2184696791468346e-07,-0.3428873121738434,-0.11598315089940905,9.79307746887207,8.999999999999999e-08,0.0,0.0,0.0,8.999999999999999e-08,0.0,0.0,0.0,8.999999999999999e-08
1719006570.975098,27679,1719006570,971260480,base_link,0.017824387582559553,-0.0029206205267564823,-0.8747643736051248,-0.4842118662843807,1.0,0.0,0.0,0.0,1.0,0.0,0.0,0.0,1.0,-0.00040692207403481007,-0.000278084393357858,0.0003094933344982565,1.2184696791468346e-07,0.0,0.0,0.0,1.2184696791468346e-07,0.0,0.0,0.0,1.2184696791468346e-07,-0.3428873121738434,-0.11598315089940905,9.79307746887207,8.999999999999999e-08,0.0,0.0,0.0,8.999999999999999e-08,0.0,0.0,0.0,8.999999999999999e-08
1719006570.9813604,27680,1719006570,976260480,base_link,0.017824282873982782,-0.0029199744945941518,-0.8747644368253975,-0.48421180306410794,1.0,0.0,0.0,0.0,1.0,0.0,0.0,0.0,1.0,-0.00040437187999486923,-3.172218566760418e-05,0.00019668485037982464,1.2184696791468346e-07,0.0,0.0,0.0,1.2184696791468346e-07,0.0,0.0,0.0,1.2184696791468346e-07,-0.3305773437023163,-0.12174732238054156,9.790143013000488,8.999999999999999e-08,0.0,0.0,0.0,8.999999999999999e-08,0.0,0.0,0.0,8.999999999999999e-08
1719006570.9884882,27681,1719006570,981260480,base_link,0.01782404909068245,-0.0029198684689283666,-0.874765216542095,-0.4842103489978343,1.0,0.0,0.0,0.0,1.0,0.0,0.0,0.0,1.0,-0.0002875390346162021,7.292619557119909e-05,0.00016659958055242896,1.2184696791468346e-07,0.0,0.0,0.0,1.2184696791468346e-07,0.0,0.0,0.0,1.2184696791468346e-07,-0.34448620676994324,-0.10686685144901156,9.797906875610352,8.999999999999999e-08,0.0,0.0,0.0,8.999999999999999e-08,0.0,0.0,0.0,8.999999999999999e-08
1719006570.9933417,27682,1719006570,986260480,base_link,0.017824709610823955,-0.0029193304380653443,-0.8747651533218223,-0.48421041221810707,1.0,0.0,0.0,0.0,1.0,0.0,0.0,0.0,1.0,-0.0002879979438148439,0.00010225261939922349,0.0001651561469770968,1.2184696791468346e-07,0.0,0.0,0.0,1.2184696791468346e-07,0.0,0.0,0.0,1.2184696791468346e-07,-0.3423146605491638,-0.11893054097890733,9.805108070373535,8.999999999999999e-08,0.0,0.0,0.0,8.999999999999999e-08,0.0,0.0,0.0,8.999999999999999e-08
1719006570.9993432,27683,1719006570,996260480,base_link,0.017826246653705587,-0.0029162247421656976,-0.874765300835792,-0.48421018041044017,1.0,0.0,0.0,0.0,1.0,0.0,0.0,0.0,1.0,-0.0004709567001555115,-2.2286811145022495e-05,0.00013680709525942802,1.2184696791468346e-07,0.0,0.0,0.0,1.2184696791468346e-07,0.0,0.0,0.0,1.2184696791468346e-07,-0.3261992335319519,-0.11653939634561418,9.808290481567383,8.999999999999999e-08,0.0,0.0,0.0,8.999999999999999e-08,0.0,0.0,0.0,8.999999999999999e-08
1719006571.0075305,27684,1719006571,1260480,base_link,0.017827390545515954,-0.0029151071921356513,-0.8747642050177307,-0.4842121191654717,1.0,0.0,0.0,0.0,1.0,0.0,0.0,0.0,1.0,-0.000721495074685663,0.00014626127085648472,-0.00033939265995286405,1.2184696791468346e-07,0.0,0.0,0.0,1.2184696791468346e-07,0.0,0.0,0.0,1.2184696791468346e-07,-0.3196176290512085,-0.12144861370324969,9.797654151916504,8.999999999999999e-08,0.0,0.0,0.0,8.999999999999999e-08,0.0,0.0,0.0,8.999999999999999e-08
1719006571.0109115,27685,1719006571,6260480,base_link,0.017824762294384594,-0.002916788456264532,-0.874764057503761,-0.4842123509731386,1.0,0.0,0.0,0.0,1.0,0.0,0.0,0.0,1.0,-6.707094144076109e-06,-0.0003208128327969462,-0.0004311599768698215,1.2184696791468346e-07,0.0,0.0,0.0,1.2184696791468346e-07,0.0,0.0,0.0,1.2184696791468346e-07,-0.3196176290512085,-0.12144861370324969,9.797654151916504,8.999999999999999e-08,0.0,0.0,0.0,8.999999999999999e-08,0.0,0.0,0.0,8.999999999999999e-08
1719006571.0182655,27686,1719006571,11260480,base_link,0.017822528511413516,-0.0029163722561354865,-0.8747643736051247,-0.48421195057807764,1.0,0.0,0.0,0.0,1.0,0.0,0.0,0.0,1.0,0.00030603358754888177,-0.0006353521603159606,-0.00020828997367061666,1.2184696791468346e-07,0.0,0.0,0.0,1.2184696791468346e-07,0.0,0.0,0.0,1.2184696791468346e-07,-0.3452872335910797,-0.09988866746425508,9.804161071777344,8.999999999999999e-08,0.0,0.0,0.0,8.999999999999999e-08,0.0,0.0,0.0,8.999999999999999e-08
1719006571.022995,27687,1719006571,16260480,base_link,0.01781972640453205,-0.0029161173994108965,-0.8747646686330643,-0.4842115712564411,1.0,0.0,0.0,0.0,1.0,0.0,0.0,0.0,1.0,0.0005488931783474982,-0.0009040176519192755,6.880809087306272e-05,1.2184696791468346e-07,0.0,0.0,0.0,1.2184696791468346e-07,0.0,0.0,0.0,1.2184696791468346e-07,-0.32626330852508545,-0.1295553892850864,9.791885375976562,8.999999999999999e-08,0.0,0.0,0.0,8.999999999999999e-08,0.0,0.0,0.0,8.999999999999999e-08
1719006571.0294442,27688,1719006571,26260480,base_link,0.017820916394457976,-0.002914783846782232,-0.8747649636610039,-0.4842110233474104,1.0,0.0,0.0,0.0,1.0,0.0,0.0,0.0,1.0,-0.00011514779180288315,-0.0002531181089580059,5.1420705858618055e-05,1.2184696791468346e-07,0.0,0.0,0.0,1.2184696791468346e-07,0.0,0.0,0.0,1.2184696791468346e-07,-0.33410143852233887,-0.14100761711597323,9.805902481079102,8.999999999999999e-08,0.0,0.0,0.0,8.999999999999999e-08,0.0,0.0,0.0,8.999999999999999e-08
1719006571.0350513,27689,1719006571,31260480,base_link,0.017820214386012466,-0.0029162234250766817,-0.8747658276713984,-0.4842094006937428,1.0,0.0,0.0,0.0,1.0,0.0,0.0,0.0,1.0,-7.896625902503729e-05,0.0001791114045772702,0.0004448875552043319,1.2184696791468346e-07,0.0,0.0,0.0,1.2184696791468346e-07,0.0,0.0,0.0,1.2184696791468346e-07,-0.33078745007514954,-0.11902043968438983,9.783693313598633,8.999999999999999e-08,0.0,0.0,0.0,8.999999999999999e-08,0.0,0.0,0.0,8.999999999999999e-08
1719006571.0443044,27690,1719006571,36260480,base_link,0.01781961972032176,-0.0029142471330082255,-0.8747650901015495,-0.4842108126131679,1.0,0.0,0.0,0.0,1.0,0.0,0.0,0.0,1.0,-0.00014489330351352692,2.535682142479345e-05,-2.8660637326538566e-05,1.2184696791468346e-07,0.0,0.0,0.0,1.2184696791468346e-07,0.0,0.0,0.0,1.2184696791468346e-07,-0.33050277829170227,-0.12396321445703387,9.799604415893555,8.999999999999999e-08,0.0,0.0,0.0,8.999999999999999e-08,0.0,0.0,0.0,8.999999999999999e-08
1719006571.0473735,27691,1719006571,41260480,base_link,0.01782046529147001,-0.0029144130862242376,-0.8747643736051248,-0.4842118662843807,1.0,0.0,0.0,0.0,1.0,0.0,0.0,0.0,1.0,-0.00032865331741049886,5.7806148106465075e-05,-0.00031518618925474584,1.2184696791468346e-07,0.0,0.0,0.0,1.2184696791468346e-07,0.0,0.0,0.0,1.2184696791468346e-07,-0.33182570338249207,-0.1166682317852962,9.786787986755371,8.999999999999999e-08,0.0,0.0,0.0,8.999999999999999e-08,0.0,0.0,0.0,8.999999999999999e-08
1719006571.0533054,27692,1719006571,46260480,base_link,0.017821181129350185,-0.0029136893458099646,-0.8747641839443064,-0.48421247741368406,1.0,0.0,0.0,0.0,1.0,0.0,0.0,0.0,1.0,-8.359004277735949e-05,3.4519936889409965e-05,-0.00042948394548147917,1.2184696791468346e-07,0.0,0.0,0.0,1.2184696791468346e-07,0.0,0.0,0.0,1.2184696791468346e-07,-0.326490193605423,-0.11670472472905993,9.792903900146484,8.999999999999999e-08,0.0,0.0,0.0,8.999999999999999e-08,0.0,0.0,0.0,8.999999999999999e-08
1719006571.0594823,27693,1719006571,56259712,base_link,0.017819440596215586,-0.0029138506892144203,-0.8747636781821243,-0.4842134889380483,1.0,0.0,0.0,0.0,1.0,0.0,0.0,0.0,1.0,2.907472662627697e-07,-0.00026309012901037937,-0.00026069005252793426,1.2184696791468346e-07,0.0,0.0,0.0,1.2184696791468346e-07,0.0,0.0,0.0,1.2184696791468346e-07,-0.3460083603858948,-0.13323329389095187,9.78538990020752,8.999999999999999e-08,0.0,0.0,0.0,8.999999999999999e-08,0.0,0.0,0.0,8.999999999999999e-08
1719006571.0650995,27694,1719006571,61259712,base_link,0.01781894998055714,-0.002912664650555543,-0.8747639942834882,-0.48421291995559346,1.0,0.0,0.0,0.0,1.0,0.0,0.0,0.0,1.0,-0.0001640371629036963,-0.00018172190175391734,7.226422894746087e-06,1.2184696791468346e-07,0.0,0.0,0.0,1.2184696791468346e-07,0.0,0.0,0.0,1.2184696791468346e-07,-0.32952117919921875,-0.12117735296487689,9.78790283203125,8.999999999999999e-08,0.0,0.0,0.0,8.999999999999999e-08,0.0,0.0,0.0,8.999999999999999e-08
1719006571.072078,27695,1719006571,66259712,base_link,0.017817995749565073,-0.0029145671856391055,-0.8747641207240338,-0.48421245634025983,1.0,0.0,0.0,0.0,1.0,0.0,0.0,0.0,1.0,6.310729077085853e-05,-6.210572610143572e-05,1.024169614538551e-05,1.2184696791468346e-07,0.0,0.0,0.0,1.2184696791468346e-07,0.0,0.0,0.0,1.2184696791468346e-07,-0.3294844329357147,-0.10934534668922305,9.798044204711914,8.999999999999999e-08,0.0,0.0,0.0,8.999999999999999e-08,0.0,0.0,0.0,8.999999999999999e-08
1719006571.0783372,27696,1719006571,71259712,base_link,0.01781884197925783,-0.0029146455524355556,-0.8747641839443064,-0.48421256170738114,1.0,0.0,0.0,0.0,1.0,0.0,0.0,0.0,1.0,0.00035471079172566533,0.00031955033773556357,0.0002913228818215429,1.2184696791468346e-07,0.0,0.0,0.0,1.2184696791468346e-07,0.0,0.0,0.0,1.2184696791468346e-07,-0.33196696639060974,-0.11258895695209382,9.810808181762695,8.999999999999999e-08,0.0,0.0,0.0,8.999999999999999e-08,0.0,0.0,0.0,8.999999999999999e-08
1719006571.0843773,27697,1719006571,76259712,base_link,0.017818325021819063,-0.002917913908828673,-0.8747650690281251,-0.4842107493928951,1.0,0.0,0.0,0.0,1.0,0.0,0.0,0.0,1.0,0.00047140783863142133,0.00020342285279184588,0.0005662837065756321,1.2184696791468346e-07,0.0,0.0,0.0,1.2184696791468346e-07,0.0,0.0,0.0,1.2184696791468346e-07,-0.3336358070373535,-0.11292046308517335,9.807461738586426,8.999999999999999e-08,0.0,0.0,0.0,8.999999999999999e-08,0.0,0.0,0.0,8.999999999999999e-08
1719006571.0874012,27698,1719006571,81259712,base_link,0.017818307899661857,-0.0029156076859617173,-0.8747654062029133,-0.484210159337016,1.0,0.0,0.0,0.0,1.0,0.0,0.0,0.0,1.0,-8.084997534751892e-05,2.3046719434205473e-05,0.0002522734575904906,1.2184696791468346e-07,0.0,0.0,0.0,1.2184696791468346e-07,0.0,0.0,0.0,1.2184696791468346e-07,-0.3336358070373535,-0.11292046308517335,9.807461738586426,8.999999999999999e-08,0.0,0.0,0.0,8.999999999999999e-08,0.0,0.0,0.0,8.999999999999999e-08
1719006571.0933049,27699,1719006571,86259712,base_link,0.01781890388244158,-0.00291407261871361,-0.874765553716883,-0.4842099275293491,1.0,0.0,0.0,0.0,1.0,0.0,0.0,0.0,1.0,-0.0002938605030067265,4.046269896207375e-05,-0.00014501131954602897,1.2184696791468346e-07,0.0,0.0,0.0,1.2184696791468346e-07,0.0,0.0,0.0,1.2184696791468346e-07,-0.3271580636501312,-0.13830848038196444,9.810239791870117,8.999999999999999e-08,0.0,0.0,0.0,8.999999999999999e-08,0.0,0.0,0.0,8.999999999999999e-08
1719006571.099229,27700,1719006571,96259712,base_link,0.017817780405510963,-0.002915874396487451,-0.8747645211190945,-0.4842118030641079,1.0,0.0,0.0,0.0,1.0,0.0,0.0,0.0,1.0,-2.0187580958008766e-05,-4.013112629763786e-05,-0.0003517103905323893,1.2184696791468346e-07,0.0,0.0,0.0,1.2184696791468346e-07,0.0,0.0,0.0,1.2184696791468346e-07,-0.3276602029800415,-0.1147550418972957,9.804265022277832,8.999999999999999e-08,0.0,0.0,0.0,8.999999999999999e-08,0.0,0.0,0.0,8.999999999999999e-08
1719006571.106683,27701,1719006571,101259712,base_link,0.017816587122862496,-0.0029137486148156835,-0.8747654904966102,-0.48421015933701594,1.0,0.0,0.0,0.0,1.0,0.0,0.0,0.0,1.0,-0.00013265572488307953,-0.0004945068503729999,0.0001042188960127533,1.2184696791468346e-07,0.0,0.0,0.0,1.2184696791468346e-07,0.0,0.0,0.0,1.2184696791468346e-07,-0.32951366901397705,-0.11745957285165667,9.800180435180664,8.999999999999999e-08,0.0,0.0,0.0,8.999999999999999e-08,0.0,0.0,0.0,8.999999999999999e-08
1719006571.1124563,27702,1719006571,106259712,base_link,0.01781594965177877,-0.0029126106499058895,-0.874764963661004,-0.4842111076411075,1.0,0.0,0.0,0.0,1.0,0.0,0.0,0.0,1.0,-0.00025553652085363865,-0.00025514268781989813,0.00010199175449088219,1.2184696791468346e-07,0.0,0.0,0.0,1.2184696791468346e-07,0.0,0.0,0.0,1.2184696791468346e-07,-0.3248918652534485,-0.11782773584127307,9.801337242126465,8.999999999999999e-08,0.0,0.0,0.0,8.999999999999999e-08,0.0,0.0,0.0,8.999999999999999e-08
1719006571.1216342,27703,1719006571,111259712,base_link,0.017815738258991708,-0.0029135293194945235,-0.8747650268812767,-0.48421096012713766,1.0,0.0,0.0,0.0,1.0,0.0,0.0,0.0,1.0,-3.0102906748652458e-05,-0.000401587865781039,-0.00012016046093776817,1.2184696791468346e-07,0.0,0.0,0.0,1.2184696791468346e-07,0.0,0.0,0.0,1.2184696791468346e-07,-0.3311269283294678,-0.12946313619613528,9.805660247802734,8.999999999999999e-08,0.0,0.0,0.0,8.999999999999999e-08,0.0,0.0,0.0,8.999999999999999e-08
1719006571.1247015,27704,1719006571,116259712,base_link,0.017814191337942455,-0.00291179405471599,-0.8747646264862158,-0.4842118662843806,1.0,0.0,0.0,0.0,1.0,0.0,0.0,0.0,1.0,-0.00020164274610579014,-0.000201764953089878,-0.0002275210863444954,1.2184696791468346e-07,0.0,0.0,0.0,1.2184696791468346e-07,0.0,0.0,0.0,1.2184696791468346e-07,-0.343246191740036,-0.11578803509473681,9.775303840637207,8.999999999999999e-08,0.0,0.0,0.0,8.999999999999999e-08,0.0,0.0,0.0,8.999999999999999e-08
1719006571.1274571,27705,1719006571,121259712,base_link,0.01781619726451377,-0.0029122221086461783,-0.874764563265943,-0.48421176091725937,1.0,0.0,0.0,0.0,1.0,0.0,0.0,0.0,1.0,1.4101096894592047e-05,0.00040188783896155655,-0.0001915789616759867,1.2184696791468346e-07,0.0,0.0,0.0,1.2184696791468346e-07,0.0,0.0,0.0,1.2184696791468346e-07,-0.343246191740036,-0.11578803509473681,9.775303840637207,8.999999999999999e-08,0.0,0.0,0.0,8.999999999999999e-08,0.0,0.0,0.0,8.999999999999999e-08
1719006571.1328702,27706,1719006571,126259712,base_link,0.017816518634233666,-0.002913354805199909,-0.8747638046226699,-0.4842133624975028,1.0,0.0,0.0,0.0,1.0,0.0,0.0,0.0,1.0,0.00017045234562829137,0.0005312752909958363,-5.354912718757994e-05,1.2184696791468346e-07,0.0,0.0,0.0,1.2184696791468346e-07,0.0,0.0,0.0,1.2184696791468346e-07,-0.3309372663497925,-0.11295153945684314,9.785530090332031,8.999999999999999e-08,0.0,0.0,0.0,8.999999999999999e-08,0.0,0.0,0.0,8.999999999999999e-08
1719006571.1408463,27707,1719006571,136259712,base_link,0.01781787852864265,-0.0029146396255349833,-0.874764963661004,-0.4842111076411075,1.0,0.0,0.0,0.0,1.0,0.0,0.0,0.0,1.0,-6.915692938491702e-05,0.0004719743446912617,0.0002258968306705355,1.2184696791468346e-07,0.0,0.0,0.0,1.2184696791468346e-07,0.0,0.0,0.0,1.2184696791468346e-07,-0.33117416501045227,-0.1168290153145778,9.804139137268066,8.999999999999999e-08,0.0,0.0,0.0,8.999999999999999e-08,0.0,0.0,0.0,8.999999999999999e-08
1719006571.146234,27708,1719006571,141259712,base_link,0.017817090250866596,-0.002915093362700984,-0.8747650479547009,-0.4842109390537134,1.0,0.0,0.0,0.0,1.0,0.0,0.0,0.0,1.0,-1.6512407455593348e-05,8.084534783847971e-07,0.0002782243536785245,1.2184696791468346e-07,0.0,0.0,0.0,1.2184696791468346e-07,0.0,0.0,0.0,1.2184696791468346e-07,-0.3398914039134979,-0.12328092008828997,9.796708106994629,8.999999999999999e-08,0.0,0.0,0.0,8.999999999999999e-08,0.0,0.0,0.0,8.999999999999999e-08
1719006571.1519527,27709,1719006571,146259712,base_link,0.017816280899666286,-0.002911726224631668,-0.8747650268812767,-0.4842108758334407,1.0,0.0,0.0,0.0,1.0,0.0,0.0,0.0,1.0,-0.0003753011114895344,-0.0005491838091984391,-0.00012500383309088642,1.2184696791468346e-07,0.0,0.0,0.0,1.2184696791468346e-07,0.0,0.0,0.0,1.2184696791468346e-07,-0.3451644480228424,-0.10790518671274066,9.791683197021484,8.999999999999999e-08,0.0,0.0,0.0,8.999999999999999e-08,0.0,0.0,0.0,8.999999999999999e-08
1719006571.1622968,27710,1719006571,151261248,base_link,0.01781467602670033,-0.0029107219442569936,-0.8747639732100639,-0.4842130253227147,1.0,0.0,0.0,0.0,1.0,0.0,0.0,0.0,1.0,-0.0005738905165344477,-0.0007563699618913234,-0.0004925431567244231,1.2184696791468346e-07,0.0,0.0,0.0,1.2184696791468346e-07,0.0,0.0,0.0,1.2184696791468346e-07,-0.337932288646698,-0.11971931904554246,9.814305305480957,8.999999999999999e-08,0.0,0.0,0.0,8.999999999999999e-08,0.0,0.0,0.0,8.999999999999999e-08
1719006571.1637163,27711,1719006571,161261248,base_link,0.017812720149511622,-0.002908208938414532,-0.8747632567136392,-0.4842144161687155,1.0,0.0,0.0,0.0,1.0,0.0,0.0,0.0,1.0,-0.0003181672072969377,-0.0005767255788668991,-0.000445586338173598,1.2184696791468346e-07,0.0,0.0,0.0,1.2184696791468346e-07,0.0,0.0,0.0,1.2184696791468346e-07,-0.33639588952064514,-0.10846011340618013,9.810133934020996,8.999999999999999e-08,0.0,0.0,0.0,8.999999999999999e-08,0.0,0.0,0.0,8.999999999999999e-08
1719006571.1710968,27712,1719006571,166261248,base_link,0.01781384691916478,-0.002907572125875313,-0.8747605803887588,-0.48421903124862753,1.0,0.0,0.0,0.0,1.0,0.0,0.0,0.0,1.0,-0.00015984714264050126,-0.0001819208555389197,-0.0011901755351573229,1.2184696791468346e-07,0.0,0.0,0.0,1.2184696791468346e-07,0.0,0.0,0.0,1.2184696791468346e-07,-0.31664586067199707,-0.11540257185697435,9.80567741394043,8.999999999999999e-08,0.0,0.0,0.0,8.999999999999999e-08,0.0,0.0,0.0,8.999999999999999e-08
1719006571.176949,27713,1719006571,171261248,base_link,0.017815216691741385,-0.002909848055694902,-0.8747600324797282,-0.4842200849198403,1.0,0.0,0.0,0.0,1.0,0.0,0.0,0.0,1.0,-1.2216391041874886e-05,0.00045088163460604836,-0.0007511740550398828,1.2184696791468346e-07,0.0,0.0,0.0,1.2184696791468346e-07,0.0,0.0,0.0,1.2184696791468346e-07,-0.3249531686306,-0.11864957958459733,9.8151216506958,8.999999999999999e-08,0.0,0.0,0.0,8.999999999999999e-08,0.0,0.0,0.0,8.999999999999999e-08
1719006571.1831577,27714,1719006571,176261248,base_link,0.017816013530596045,-0.0029106988951992144,-0.8747612758117592,-0.484217830063445,1.0,0.0,0.0,0.0,1.0,0.0,0.0,0.0,1.0,0.00030168500961735845,0.00046791089698672295,0.0001974464976228773,1.2184696791468346e-07,0.0,0.0,0.0,1.2184696791468346e-07,0.0,0.0,0.0,1.2184696791468346e-07,-0.3284687101840973,-0.10038504004478335,9.801448822021484,8.999999999999999e-08,0.0,0.0,0.0,8.999999999999999e-08,0.0,0.0,0.0,8.999999999999999e-08
1719006571.1882784,27715,1719006571,181261248,base_link,0.017814815638136024,-0.002910833896823351,-0.8747620976753052,-0.48421633385032287,1.0,0.0,0.0,0.0,1.0,0.0,0.0,0.0,1.0,0.00024885666789487004,-1.5528654330409996e-05,0.0005597188137471676,1.2184696791468346e-07,0.0,0.0,0.0,1.2184696791468346e-07,0.0,0.0,0.0,1.2184696791468346e-07,-0.3108487129211426,-0.09369581937789798,9.779325485229492,8.999999999999999e-08,0.0,0.0,0.0,8.999999999999999e-08,0.0,0.0,0.0,8.999999999999999e-08
1719006571.1975212,27716,1719006571,191261248,base_link,0.017812066214815195,-0.0029091895111869183,-0.8747613179586078,-0.4842179565039905,1.0,0.0,0.0,0.0,1.0,0.0,0.0,0.0,1.0,7.363263284787536e-05,-0.000390505010727793,3.8539292290807245e-06,1.2184696791468346e-07,0.0,0.0,0.0,1.2184696791468346e-07,0.0,0.0,0.0,1.2184696791468346e-07,-0.3228115737438202,-0.11527913063764453,9.795153617858887,8.999999999999999e-08,0.0,0.0,0.0,8.999999999999999e-08,0.0,0.0,0.0,8.999999999999999e-08
1719006571.200042,27717,1719006571,196261248,base_link,0.017810717515662846,-0.0029077657379606597,-0.8747618026473656,-0.4842171346404446,1.0,0.0,0.0,0.0,1.0,0.0,0.0,0.0,1.0,-0.0002532463404349983,-0.000671312038321048,-1.5125144273042596e-05,1.2184696791468346e-07,0.0,0.0,0.0,1.2184696791468346e-07,0.0,0.0,0.0,1.2184696791468346e-07,-0.34052401781082153,-0.12356746941804767,9.799253463745117,8.999999999999999e-08,0.0,0.0,0.0,8.999999999999999e-08,0.0,0.0,0.0,8.999999999999999e-08
1719006571.2083392,27718,1719006571,201261248,base_link,0.01780974089415751,-0.0029077624452381193,-0.8747614654725775,-0.4842177246963237,1.0,0.0,0.0,0.0,1.0,0.0,0.0,0.0,1.0,-6.881542503833771e-06,-0.0005681362235918641,0.00011753465514630086,1.2184696791468346e-07,0.0,0.0,0.0,1.2184696791468346e-07,0.0,0.0,0.0,1.2184696791468346e-07,-0.3214135766029358,-0.10931335389613984,9.805379867553711,8.999999999999999e-08,0.0,0.0,0.0,8.999999999999999e-08,0.0,0.0,0.0,8.999999999999999e-08
1719006571.2119267,27719,1719006571,206261248,base_link,0.017808148533537207,-0.002907134193777504,-0.8747627720248813,-0.48421540661965556,1.0,0.0,0.0,0.0,1.0,0.0,0.0,0.0,1.0,-3.4882104955613613e-06,-0.0004947517882101238,0.00029777380404993897,1.2184696791468346e-07,0.0,0.0,0.0,1.2184696791468346e-07,0.0,0.0,0.0,1.2184696791468346e-07,-0.32888513803482056,-0.1165667548775661,9.779617309570312,8.999999999999999e-08,0.0,0.0,0.0,8.999999999999999e-08,0.0,0.0,0.0,8.999999999999999e-08
1719006571.2170088,27720,1719006571,211261248,base_link,0.017806982909758077,-0.0029085777233390023,-0.8747626455843358,-0.4842156173538982,1.0,0.0,0.0,0.0,1.0,0.0,0.0,0.0,1.0,0.00031987292459234595,-0.0002336921752430498,0.00039984856266528373,1.2184696791468346e-07,0.0,0.0,0.0,1.2184696791468346e-07,0.0,0.0,0.0,1.2184696791468346e-07,-0.32770830392837524,-0.12471523135900378,9.789587020874023,8.999999999999999e-08,0.0,0.0,0.0,8.999999999999999e-08,0.0,0.0,0.0,8.999999999999999e-08
1719006571.2230973,27721,1719006571,216261248,base_link,0.01780870236946842,-0.0029094845391264943,-0.8747642050177307,-0.48421279351504787,1.0,0.0,0.0,0.0,1.0,0.0,0.0,0.0,1.0,3.13945347443223e-05,0.0002476164081599564,0.000608908012509346,1.2184696791468346e-07,0.0,0.0,0.0,1.2184696791468346e-07,0.0,0.0,0.0,1.2184696791468346e-07,-0.32664230465888977,-0.12154280394315599,9.806707382202148,8.999999999999999e-08,0.0,0.0,0.0,8.999999999999999e-08,0.0,0.0,0.0,8.999999999999999e-08
1719006571.2297049,27722,1719006571,221261248,base_link,0.017809134374665657,-0.002908627114177102,-0.8747649215141554,-0.4842114869627441,1.0,0.0,0.0,0.0,1.0,0.0,0.0,0.0,1.0,-6.870971992611885e-05,0.00021543979528360077,0.0005979412235319614,1.2184696791468346e-07,0.0,0.0,0.0,1.2184696791468346e-07,0.0,0.0,0.0,1.2184696791468346e-07,-0.3422357141971588,-0.11915472894906877,9.803376197814941,8.999999999999999e-08,0.0,0.0,0.0,8.999999999999999e-08,0.0,0.0,0.0,8.999999999999999e-08
1719006571.23604,27723,1719006571,231261248,base_link,0.017810234802538495,-0.002908625138543577,-0.874764563265943,-0.48421209809204746,1.0,0.0,0.0,0.0,1.0,0.0,0.0,0.0,1.0,-0.00025423377519473433,0.00026626739418134093,0.00013053190195932982,1.2184696791468346e-07,0.0,0.0,0.0,1.2184696791468346e-07,0.0,0.0,0.0,1.2184696791468346e-07,-0.3333762288093567,-0.11023513972759127,9.800309181213379,8.999999999999999e-08,0.0,0.0,0.0,8.999999999999999e-08,0.0,0.0,0.0,8.999999999999999e-08
1719006571.2400877,27724,1719006571,236261248,base_link,0.017810924957182863,-0.0029060212535590136,-0.8747644789722461,-0.48421226667944156,1.0,0.0,0.0,0.0,1.0,0.0,0.0,0.0,1.0,-0.0005454220809042454,6.339057290460913e-05,-0.00014194202958606184,1.2184696791468346e-07,0.0,0.0,0.0,1.2184696791468346e-07,0.0,0.0,0.0,1.2184696791468346e-07,-0.32245129346847534,-0.13643337786197543,9.807076454162598,8.999999999999999e-08,0.0,0.0,0.0,8.999999999999999e-08,0.0,0.0,0.0,8.999999999999999e-08
1719006571.247373,27725,1719006571,241261248,base_link,0.01781146101241236,-0.0029078441047571094,-0.8747641417974579,-0.48421285673532066,1.0,0.0,0.0,0.0,1.0,0.0,0.0,0.0,1.0,-0.00013653916539624333,0.00028170837322250003,-0.00033795862691476947,1.2184696791468346e-07,0.0,0.0,0.0,1.2184696791468346e-07,0.0,0.0,0.0,1.2184696791468346e-07,-0.3237696588039398,-0.1269170492887485,9.800276756286621,8.999999999999999e-08,0.0,0.0,0.0,8.999999999999999e-08,0.0,0.0,0.0,8.999999999999999e-08
1719006571.2521708,27726,1719006571,246261248,base_link,0.01780946957382022,-0.0029101029124194906,-0.8747623505563963,-0.48421624955662584,1.0,0.0,0.0,0.0,1.0,0.0,0.0,0.0,1.0,0.0005829820293001831,5.241898907115672e-05,-0.0008726181113161147,1.2184696791468346e-07,0.0,0.0,0.0,1.2184696791468346e-07,0.0,0.0,0.0,1.2184696791468346e-07,-0.3291604518890381,-0.12562038004398227,9.780301094055176,8.999999999999999e-08,0.0,0.0,0.0,8.999999999999999e-08,0.0,0.0,0.0,8.999999999999999e-08
1719006571.258253,27727,1719006571,251260992,base_link,0.017808397463361225,-0.002911184242501597,-0.8747616340599715,-0.48421755610892964,1.0,0.0,0.0,0.0,1.0,0.0,0.0,0.0,1.0,0.0005090218619443476,-0.00038675061659887444,-0.0007348086219280958,1.2184696791468346e-07,0.0,0.0,0.0,1.2184696791468346e-07,0.0,0.0,0.0,1.2184696791468346e-07,-0.3300185799598694,-0.12861181795596957,9.788029670715332,8.999999999999999e-08,0.0,0.0,0.0,8.999999999999999e-08,0.0,0.0,0.0,8.999999999999999e-08
1719006571.2643046,27728,1719006571,261260992,base_link,0.01780458317357099,-0.002909104558945388,-0.8747607489761529,-0.4842191155423245,1.0,0.0,0.0,0.0,1.0,0.0,0.0,0.0,1.0,0.00021690124412998557,-0.0007970730657689274,-0.00048070770571939636,1.2184696791468346e-07,0.0,0.0,0.0,1.2184696791468346e-07,0.0,0.0,0.0,1.2184696791468346e-07,-0.34906551241874695,-0.11566277593374133,9.798327445983887,8.999999999999999e-08,0.0,0.0,0.0,8.999999999999999e-08,0.0,0.0,0.0,8.999999999999999e-08
1719006571.273247,27729,1719006571,266260992,base_link,0.01780503691073699,-0.0029106923097541354,-0.8747595688643945,-0.4842212228847501,1.0,0.0,0.0,0.0,1.0,0.0,0.0,0.0,1.0,0.0002915291697718203,-0.0001798849843908102,-0.0006584781222045422,1.2184696791468346e-07,0.0,0.0,0.0,1.2184696791468346e-07,0.0,0.0,0.0,1.2184696791468346e-07,-0.3446655869483948,-0.1270684301853168,9.801379203796387,8.999999999999999e-08,0.0,0.0,0.0,8.999999999999999e-08,0.0,0.0,0.0,8.999999999999999e-08
1719006571.276328,27730,1719006571,271260992,base_link,0.017804064899043206,-0.002912299158353612,-0.8747592949098791,-0.4842217497203565,1.0,0.0,0.0,0.0,1.0,0.0,0.0,0.0,1.0,0.000504327763337642,0.00013068399857729668,-0.0004300706787034869,1.2184696791468346e-07,0.0,0.0,0.0,1.2184696791468346e-07,0.0,0.0,0.0,1.2184696791468346e-07,-0.34938883781433105,-0.11661865562200426,9.803987503051758,8.999999999999999e-08,0.0,0.0,0.0,8.999999999999999e-08,0.0,0.0,0.0,8.999999999999999e-08
1719006571.2820828,27731,1719006571,276260992,base_link,0.017805090911386642,-0.002911325829570814,-0.8747596531580916,-0.4842211385910531,1.0,0.0,0.0,0.0,1.0,0.0,0.0,0.0,1.0,-3.412930527701974e-05,-6.906247290316968e-05,6.447063060477377e-05,1.2184696791468346e-07,0.0,0.0,0.0,1.2184696791468346e-07,0.0,0.0,0.0,1.2184696791468346e-07,-0.3269709050655365,-0.10227598994970201,9.816109657287598,8.999999999999999e-08,0.0,0.0,0.0,8.999999999999999e-08,0.0,0.0,0.0,8.999999999999999e-08
1719006571.2883608,27732,1719006571,281260992,base_link,0.017802947349013158,-0.002910329451730236,-0.8747602010671223,-0.48422025350723435,1.0,0.0,0.0,0.0,1.0,0.0,0.0,0.0,1.0,-0.00013994425535202026,-0.00019666692242026326,0.0002504819422028959,1.2184696791468346e-07,0.0,0.0,0.0,1.2184696791468346e-07,0.0,0.0,0.0,1.2184696791468346e-07,-0.32997196912765503,-0.11676429957151294,9.797036170959473,8.999999999999999e-08,0.0,0.0,0.0,8.999999999999999e-08,0.0,0.0,0.0,8.999999999999999e-08
1719006571.2958744,27733,1719006571,291260992,base_link,0.01780316927851235,-0.00291226096277215,-0.8747588945148184,-0.4842225715839025,1.0,0.0,0.0,0.0,1.0,0.0,0.0,0.0,1.0,8.006987627595663e-05,-9.675885667093102e-05,-0.0003235478943679482,1.2184696791468346e-07,0.0,0.0,0.0,1.2184696791468346e-07,0.0,0.0,0.0,1.2184696791468346e-07,-0.34868207573890686,-0.11779611557721972,9.782590866088867,8.999999999999999e-08,0.0,0.0,0.0,8.999999999999999e-08,0.0,0.0,0.0,8.999999999999999e-08
1719006571.3018792,27734,1719006571,296260992,base_link,0.01780497698318676,-0.0029124315257997167,-0.8747584730463333,-0.4842233302271757,1.0,0.0,0.0,0.0,1.0,0.0,0.0,0.0,1.0,0.00011064839782193303,0.00038433904410339886,-0.0005035909707657993,1.2184696791468346e-07,0.0,0.0,0.0,1.2184696791468346e-07,0.0,0.0,0.0,1.2184696791468346e-07,-0.33460789918899536,-0.12448056787252305,9.817305564880371,8.999999999999999e-08,0.0,0.0,0.0,8.999999999999999e-08,0.0,0.0,0.0,8.999999999999999e-08
1719006571.3082075,27735,1719006571,301260992,base_link,0.017805340499755167,-0.002913486514101506,-0.8747580305044239,-0.4842241099438731,1.0,0.0,0.0,0.0,1.0,0.0,0.0,0.0,1.0,-7.430894766002893e-05,0.0005335929454304278,-0.00039245688822120434,1.2184696791468346e-07,0.0,0.0,0.0,1.2184696791468346e-07,0.0,0.0,0.0,1.2184696791468346e-07,-0.3320697844028473,-0.11600794643163562,9.800341606140137,8.999999999999999e-08,0.0,0.0,0.0,8.999999999999999e-08,0.0,0.0,0.0,8.999999999999999e-08
1719006571.3132424,27736,1719006571,306260992,base_link,0.01780684066414435,-0.0029119507883088895,-0.874758199091818,-0.484223772769085,1.0,0.0,0.0,0.0,1.0,0.0,0.0,0.0,1.0,-0.00040881725726649165,0.00031325063901022077,-9.526725625619296e-05,1.2184696791468346e-07,0.0,0.0,0.0,1.2184696791468346e-07,0.0,0.0,0.0,1.2184696791468346e-07,-0.33364585041999817,-0.12373549491166949,9.799347877502441,8.999999999999999e-08,0.0,0.0,0.0,8.999999999999999e-08,0.0,0.0,0.0,8.999999999999999e-08
1719006571.3156867,27737,1719006571,311260992,base_link,0.017806326999428124,-0.0029116136135208023,-0.8747585994868788,-0.4842230351992361,1.0,0.0,0.0,0.0,1.0,0.0,0.0,0.0,1.0,-0.00037257204530760646,0.00023882518871687353,-1.087755663320425e-05,1.2184696791468346e-07,0.0,0.0,0.0,1.2184696791468346e-07,0.0,0.0,0.0,1.2184696791468346e-07,-0.33364585041999817,-0.12373549491166949,9.799347877502441,8.999999999999999e-08,0.0,0.0,0.0,8.999999999999999e-08,0.0,0.0,0.0,8.999999999999999e-08
1719006571.3259091,27738,1719006571,321260992,base_link,0.0178061761927358,-0.002910726554068551,-0.8747597585252128,-0.48422094893023476,1.0,0.0,0.0,0.0,1.0,0.0,0.0,0.0,1.0,-0.0005039068637415767,0.00019508070545271044,0.0003436331171542406,1.2184696791468346e-07,0.0,0.0,0.0,1.2184696791468346e-07,0.0,0.0,0.0,1.2184696791468346e-07,-0.3311600387096405,-0.12518236041068911,9.791326522827148,8.999999999999999e-08,0.0,0.0,0.0,8.999999999999999e-08,0.0,0.0,0.0,8.999999999999999e-08
1719006571.3311741,27739,1719006571,326260992,base_link,0.017807172570576377,-0.0029113633666077695,-0.87475969530494,-0.4842210121505075,1.0,0.0,0.0,0.0,1.0,0.0,0.0,0.0,1.0,-0.00024598551681265235,0.0004365800123196096,0.00030875881202518935,1.2184696791468346e-07,0.0,0.0,0.0,1.2184696791468346e-07,0.0,0.0,0.0,1.2184696791468346e-07,-0.32162410020828247,-0.11823380738496661,9.80091381072998,8.999999999999999e-08,0.0,0.0,0.0,8.999999999999999e-08,0.0,0.0,0.0,8.999999999999999e-08
1719006571.3377645,27740,1719006571,331260992,base_link,0.017807568355825674,-0.002911881641135552,-0.8747607700495771,-0.4842190101752033,1.0,0.0,0.0,0.0,1.0,0.0,0.0,0.0,1.0,4.488177364692092e-05,0.00039204984204843646,0.00046112679410725827,1.2184696791468346e-07,0.0,0.0,0.0,1.2184696791468346e-07,0.0,0.0,0.0,1.2184696791468346e-07,-0.3254564702510834,-0.1205216422677028,9.810065269470215,8.999999999999999e-08,0.0,0.0,0.0,8.999999999999999e-08,0.0,0.0,0.0,8.999999999999999e-08
1719006571.343539,27741,1719006571,336260992,base_link,0.017806224266484882,-0.0029147851638712473,-0.8747608121964257,-0.4842189680283548,1.0,0.0,0.0,0.0,1.0,0.0,0.0,0.0,1.0,0.0006852003862150013,9.200819476973268e-05,0.00020853755995631218,1.2184696791468346e-07,0.0,0.0,0.0,1.2184696791468346e-07,0.0,0.0,0.0,1.2184696791468346e-07,-0.332180380821228,-0.11218326538801073,9.808133125305176,8.999999999999999e-08,0.0,0.0,0.0,8.999999999999999e-08,0.0,0.0,0.0,8.999999999999999e-08
1719006571.3494232,27742,1719006571,341260992,base_link,0.017805338524121642,-0.00291529685295395,-0.8747604539482133,-0.4842196634513552,1.0,0.0,0.0,0.0,1.0,0.0,0.0,0.0,1.0,0.00040501245530322194,0.000200004200451076,-0.00012008607154712084,1.2184696791468346e-07,0.0,0.0,0.0,1.2184696791468346e-07,0.0,0.0,0.0,1.2184696791468346e-07,-0.33231982588768005,-0.11869139224290728,9.794464111328125,8.999999999999999e-08,0.0,0.0,0.0,8.999999999999999e-08,0.0,0.0,0.0,8.999999999999999e-08
1719006571.35402,27743,1719006571,351260992,base_link,0.01780470961411652,-0.002915448976735294,-0.874760517168486,-0.4842195159373854,1.0,0.0,0.0,0.0,1.0,0.0,0.0,0.0,1.0,7.087277481332421e-05,-0.00010958682105410844,-4.571297904476522e-05,1.2184696791468346e-07,0.0,0.0,0.0,1.2184696791468346e-07,0.0,0.0,0.0,1.2184696791468346e-07,-0.33567237854003906,-0.10507822036743045,9.791051864624023,8.999999999999999e-08,0.0,0.0,0.0,8.999999999999999e-08,0.0,0.0,0.0,8.999999999999999e-08
1719006571.3623042,27744,1719006571,356261504,base_link,0.01780340767162424,-0.002915624808118925,-0.8747606646824558,-0.4842192841297186,1.0,0.0,0.0,0.0,1.0,0.0,0.0,0.0,1.0,0.00013244239380583167,-0.0003982338821515441,-6.809865590184922e-05,1.2184696791468346e-07,0.0,0.0,0.0,1.2184696791468346e-07,0.0,0.0,0.0,1.2184696791468346e-07,-0.34095457196235657,-0.12876711785793185,9.805244445800781,8.999999999999999e-08,0.0,0.0,0.0,8.999999999999999e-08,0.0,0.0,0.0,8.999999999999999e-08
1719006571.3677604,27745,1719006571,361261504,base_link,0.017804105070258192,-0.002914395305522521,-0.8747600746265767,-0.4842203799477799,1.0,0.0,0.0,0.0,1.0,0.0,0.0,0.0,1.0,-0.0003598864423111081,-0.00032924982951954007,-8.828006684780117e-05,1.2184696791468346e-07,0.0,0.0,0.0,1.2184696791468346e-07,0.0,0.0,0.0,1.2184696791468346e-07,-0.31982019543647766,-0.12288237363099931,9.8062162399292,8.999999999999999e-08,0.0,0.0,0.0,8.999999999999999e-08,0.0,0.0,0.0,8.999999999999999e-08
1719006571.371269,27746,1719006571,366261504,base_link,0.01780280971321099,-0.002912325500133933,-0.8747603696545162,-0.48422000062614323,1.0,0.0,0.0,0.0,1.0,0.0,0.0,0.0,1.0,-0.0003955577267333865,-0.0004127297434024513,-0.00010146619752049441,1.2184696791468346e-07,0.0,0.0,0.0,1.2184696791468346e-07,0.0,0.0,0.0,1.2184696791468346e-07,-0.3215188682079315,-0.10898415744304538,9.782366752624512,8.999999999999999e-08,0.0,0.0,0.0,8.999999999999999e-08,0.0,0.0,0.0,8.999999999999999e-08
1719006571.3776352,27747,1719006571,371261504,base_link,0.01780331876811566,-0.0029130518747262375,-0.874760348581092,-0.4842200216995675,1.0,0.0,0.0,0.0,1.0,0.0,0.0,0.0,1.0,-0.00012391997734084725,-0.00011378266208339481,0.00013449910329654816,1.2184696791468346e-07,0.0,0.0,0.0,1.2184696791468346e-07,0.0,0.0,0.0,1.2184696791468346e-07,-0.32525938749313354,-0.12409573048353076,9.787931442260742,8.999999999999999e-08,0.0,0.0,0.0,8.999999999999999e-08,0.0,0.0,0.0,8.999999999999999e-08
1719006571.383414,27748,1719006571,376261504,base_link,0.017802591734978848,-0.0029133139754404136,-0.8747609175635469,-0.48421894695493045,1.0,0.0,0.0,0.0,1.0,0.0,0.0,0.0,1.0,4.849518882110715e-05,-0.00016994468751363454,0.00013060134369879964,1.2184696791468346e-07,0.0,0.0,0.0,1.2184696791468346e-07,0.0,0.0,0.0,1.2184696791468346e-07,-0.32717204093933105,-0.1215607449412334,9.801313400268555,8.999999999999999e-08,0.0,0.0,0.0,8.999999999999999e-08,0.0,0.0,0.0,8.999999999999999e-08
1719006571.3896341,27749,1719006571,381261504,base_link,0.017801763944532315,-0.002912000179146988,-0.874760601462183,-0.48421951593738544,1.0,0.0,0.0,0.0,1.0,0.0,0.0,0.0,1.0,-0.00034370383946225047,-0.00017433770699426532,-1.205399166792629e-05,1.2184696791468346e-07,0.0,0.0,0.0,1.2184696791468346e-07,0.0,0.0,0.0,1.2184696791468346e-07,-0.33408185839653015,-0.12741191685199618,9.797542572021484,8.999999999999999e-08,0.0,0.0,0.0,8.999999999999999e-08,0.0,0.0,0.0,8.999999999999999e-08
1719006571.3940856,27750,1719006571,391261504,base_link,0.01780149723400658,-0.002912497380250515,-0.8747606436090316,-0.4842194737905369,1.0,0.0,0.0,0.0,1.0,0.0,0.0,0.0,1.0,-4.18082345277071e-05,-0.00012187191168777645,-3.444915637373923e-05,1.2184696791468346e-07,0.0,0.0,0.0,1.2184696791468346e-07,0.0,0.0,0.0,1.2184696791468346e-07,-0.3263661563396454,-0.13315078616142154,9.804155349731445,8.999999999999999e-08,0.0,0.0,0.0,8.999999999999999e-08,0.0,0.0,0.0,8.999999999999999e-08
1719006571.4007912,27751,1719006571,396261504,base_link,0.01780084132367663,-0.002912781871477964,-0.8747599903328797,-0.48422063282887096,1.0,0.0,0.0,0.0,1.0,0.0,0.0,0.0,1.0,0.00019159057410433888,-7.419951725751164e-05,-0.0001784116611815989,1.2184696791468346e-07,0.0,0.0,0.0,1.2184696791468346e-07,0.0,0.0,0.0,1.2184696791468346e-07,-0.32590991258621216,-0.11478326469659686,9.794346809387207,8.999999999999999e-08,0.0,0.0,0.0,8.999999999999999e-08,0.0,0.0,0.0,8.999999999999999e-08
1719006571.407864,27752,1719006571,401261504,base_link,0.017804035923084854,-0.0029140087398963352,-0.8747592527630307,-0.48422187616090206,1.0,0.0,0.0,0.0,1.0,0.0,0.0,0.0,1.0,-6.187160033732653e-05,0.000305395049508661,-0.0003076537395827473,1.2184696791468346e-07,0.0,0.0,0.0,1.2184696791468346e-07,0.0,0.0,0.0,1.2184696791468346e-07,-0.3352351784706116,-0.11018536239862321,9.813555717468262,8.999999999999999e-08,0.0,0.0,0.0,8.999999999999999e-08,0.0,0.0,0.0,8.999999999999999e-08
1719006571.4113019,27753,1719006571,406261504,base_link,0.017802560783386972,-0.0029116577360028383,-0.8747594634972733,-0.4842216654266595,1.0,0.0,0.0,0.0,1.0,0.0,0.0,0.0,1.0,-0.00014759571058675647,2.2429128875955916e-05,-0.00018519972218200564,1.2184696791468346e-07,0.0,0.0,0.0,1.2184696791468346e-07,0.0,0.0,0.0,1.2184696791468346e-07,-0.3261885941028595,-0.12140678614377855,9.806299209594727,8.999999999999999e-08,0.0,0.0,0.0,8.999999999999999e-08,0.0,0.0,0.0,8.999999999999999e-08
1719006571.4174833,27754,1719006571,411261504,base_link,0.017803634869479494,-0.0029130294842129663,-0.8747601167734251,-0.48422042209462834,1.0,0.0,0.0,0.0,1.0,0.0,0.0,0.0,1.0,-0.00014915340580046177,0.00014517163799609992,0.00016738031990826127,1.2184696791468346e-07,0.0,0.0,0.0,1.2184696791468346e-07,0.0,0.0,0.0,1.2184696791468346e-07,-0.3394996225833893,-0.11896225064992784,9.823115348815918,8.999999999999999e-08,0.0,0.0,0.0,8.999999999999999e-08,0.0,0.0,0.0,8.999999999999999e-08
1719006571.4272447,27755,1719006571,416261504,base_link,0.01780512383861204,-0.002911269194743127,-0.874760264287395,-0.4842199374058705,1.0,0.0,0.0,0.0,1.0,0.0,0.0,0.0,1.0,-0.0005870868335478008,0.00025540520437061787,0.00011231092503294346,1.2184696791468346e-07,0.0,0.0,0.0,1.2184696791468346e-07,0.0,0.0,0.0,1.2184696791468346e-07,-0.3293153941631317,-0.10890124738216281,9.79926586151123,8.999999999999999e-08,0.0,0.0,0.0,8.999999999999999e-08,0.0,0.0,0.0,8.999999999999999e-08
1719006571.4298835,27756,1719006571,421261504,base_link,0.01780565001567392,-0.002909321878633023,-0.8747599481860311,-0.48422075926941643,1.0,0.0,0.0,0.0,1.0,0.0,0.0,0.0,1.0,-0.0006289280718192458,4.77248613606207e-05,-3.723276313394309e-05,1.2184696791468346e-07,0.0,0.0,0.0,1.2184696791468346e-07,0.0,0.0,0.0,1.2184696791468346e-07,-0.3557821810245514,-0.11459802836179614,9.783214569091797,8.999999999999999e-08,0.0,0.0,0.0,8.999999999999999e-08,0.0,0.0,0.0,8.999999999999999e-08
1719006571.4340863,27757,1719006571,431261504,base_link,0.01780359008845295,-0.002907271171035165,-0.8747599481860312,-0.4842208435631135,1.0,0.0,0.0,0.0,1.0,0.0,0.0,0.0,1.0,-0.00036860641557723284,-0.000405447615776211,-9.041879093274469e-05,1.2184696791468346e-07,0.0,0.0,0.0,1.2184696791468346e-07,0.0,0.0,0.0,1.2184696791468346e-07,-0.3436441123485565,-0.12397935241460681,9.784709930419922,8.999999999999999e-08,0.0,0.0,0.0,8.999999999999999e-08,0.0,0.0,0.0,8.999999999999999e-08
1719006571.440528,27758,1719006571,436261504,base_link,0.01780439614693072,-0.002908410453033975,-0.8747598849657583,-0.4842206539022952,1.0,0.0,0.0,0.0,1.0,0.0,0.0,0.0,1.0,-0.0001356680877506733,-0.00016454141587018967,-4.560971865430472e-05,1.2184696791468346e-07,0.0,0.0,0.0,1.2184696791468346e-07,0.0,0.0,0.0,1.2184696791468346e-07,-0.33184903860092163,-0.1212659701704967,9.792936325073242,8.999999999999999e-08,0.0,0.0,0.0,8.999999999999999e-08,0.0,0.0,0.0,8.999999999999999e-08
1719006571.4465988,27759,1719006571,441261504,base_link,0.01780389762873818,-0.00290790271521832,-0.8747597163783642,-0.4842209910770833,1.0,0.0,0.0,0.0,1.0,0.0,0.0,0.0,1.0,-8.352461736649275e-05,-0.000187100755283609,0.00020114291692152622,1.2184696791468346e-07,0.0,0.0,0.0,1.2184696791468346e-07,0.0,0.0,0.0,1.2184696791468346e-07,-0.34877559542655945,-0.12335113435983538,9.789165496826172,8.999999999999999e-08,0.0,0.0,0.0,8.999999999999999e-08,0.0,0.0,0.0,8.999999999999999e-08
1719006571.4522102,27760,1719006571,446261504,base_link,0.01780194504427201,-0.0029060673516745727,-0.8747615919131231,-0.4842176825494752,1.0,0.0,0.0,0.0,1.0,0.0,0.0,0.0,1.0,-0.00010596023639664054,-0.0004926495603285729,0.0006270272424444557,1.2184696791468346e-07,0.0,0.0,0.0,1.2184696791468346e-07,0.0,0.0,0.0,1.2184696791468346e-07,-0.33916690945625305,-0.11737849563360095,9.790938377380371,8.999999999999999e-08,0.0,0.0,0.0,8.999999999999999e-08,0.0,0.0,0.0,8.999999999999999e-08
1719006571.4588513,27761,1719006571,451260992,base_link,0.017801189035176846,-0.0029065296499191763,-0.8747617394270929,-0.48421770362289945,1.0,0.0,0.0,0.0,1.0,0.0,0.0,0.0,1.0,4.560517845675349e-05,-0.0007023509242571889,0.0005845925770699979,1.2184696791468346e-07,0.0,0.0,0.0,1.2184696791468346e-07,0.0,0.0,0.0,1.2184696791468346e-07,-0.3344824016094208,-0.11756048351526141,9.795366287231445,8.999999999999999e-08,0.0,0.0,0.0,8.999999999999999e-08,0.0,0.0,0.0,8.999999999999999e-08
1719006571.4667659,27762,1719006571,461260992,base_link,0.01779588511770955,-0.0029052612931968016,-0.8747623505563963,-0.48421658673141393,1.0,0.0,0.0,0.0,1.0,0.0,0.0,0.0,1.0,0.0003239150973968208,-0.0009780481923371553,0.00032222893787547957,1.2184696791468346e-07,0.0,0.0,0.0,1.2184696791468346e-07,0.0,0.0,0.0,1.2184696791468346e-07,-0.3218645453453064,-0.111064627766608,9.792644500732422,8.999999999999999e-08,0.0,0.0,0.0,8.999999999999999e-08,0.0,0.0,0.0,8.999999999999999e-08
1719006571.470484,27763,1719006571,466260992,base_link,0.017794267732397947,-0.002904770018993846,-0.8747606646824558,-0.48421970559820365,1.0,0.0,0.0,0.0,1.0,0.0,0.0,0.0,1.0,0.00023854017490521073,-0.0007619195384904743,-0.0006100574391894041,1.2184696791468346e-07,0.0,0.0,0.0,1.2184696791468346e-07,0.0,0.0,0.0,1.2184696791468346e-07,-0.3243849575519562,-0.12423088401555896,9.798609733581543,8.999999999999999e-08,0.0,0.0,0.0,8.999999999999999e-08,0.0,0.0,0.0,8.999999999999999e-08
1719006571.476319,27764,1719006571,471260992,base_link,0.01779579555565647,-0.002906017302291965,-0.8747598849657583,-0.4842211596644773,1.0,0.0,0.0,0.0,1.0,0.0,0.0,0.0,1.0,0.00016005075303837657,-8.28346237540246e-05,-0.0007232379866763949,1.2184696791468346e-07,0.0,0.0,0.0,1.2184696791468346e-07,0.0,0.0,0.0,1.2184696791468346e-07,-0.32950201630592346,-0.1126302257180202,9.79870891571045,8.999999999999999e-08,0.0,0.0,0.0,8.999999999999999e-08,0.0,0.0,0.0,8.999999999999999e-08
1719006571.4824786,27765,1719006571,476260992,base_link,0.01779457922395022,-0.002905286976432613,-0.8747605803887588,-0.48421987418559775,1.0,0.0,0.0,0.0,1.0,0.0,0.0,0.0,1.0,5.0808885134756565e-05,-9.497701830696315e-05,2.3556698579341183e-05,1.2184696791468346e-07,0.0,0.0,0.0,1.2184696791468346e-07,0.0,0.0,0.0,1.2184696791468346e-07,-0.3406936526298523,-0.123660124838351,9.803982734680176,8.999999999999999e-08,0.0,0.0,0.0,8.999999999999999e-08,0.0,0.0,0.0,8.999999999999999e-08
1719006571.4888198,27766,1719006571,481260992,base_link,0.01779296118009411,-0.0029061740358848655,-0.8747604960950618,-0.48422004277299174,1.0,0.0,0.0,0.0,1.0,0.0,0.0,0.0,1.0,0.0003340306575410068,-0.00027552287792786956,-0.00011022639228031037,1.2184696791468346e-07,0.0,0.0,0.0,1.2184696791468346e-07,0.0,0.0,0.0,1.2184696791468346e-07,-0.31846827268600464,-0.10216732323169589,9.798104286193848,8.999999999999999e-08,0.0,0.0,0.0,8.999999999999999e-08,0.0,0.0,0.0,8.999999999999999e-08
1719006571.495806,27767,1719006571,491260992,base_link,0.017790431710638946,-0.0029086863831828203,-0.8747595688643945,-0.4842218972343263,1.0,0.0,0.0,0.0,1.0,0.0,0.0,0.0,1.0,0.0005877309595234692,-0.0002601235173642636,-0.00031964163645170624,1.2184696791468346e-07,0.0,0.0,0.0,1.2184696791468346e-07,0.0,0.0,0.0,1.2184696791468346e-07,-0.33245980739593506,-0.12503135204315066,9.812480926513672,8.999999999999999e-08,0.0,0.0,0.0,8.999999999999999e-08,0.0,0.0,0.0,8.999999999999999e-08
1719006571.501921,27768,1719006571,496260992,base_link,0.017790886106349456,-0.002908300476101141,-0.8747603696545163,-0.4842204220946284,1.0,0.0,0.0,0.0,1.0,0.0,0.0,0.0,1.0,0.000375433883164078,-5.874464113730937e-05,-1.602305565029382e-05,1.2184696791468346e-07,0.0,0.0,0.0,1.2184696791468346e-07,0.0,0.0,0.0,1.2184696791468346e-07,-0.32652807235717773,-0.11398065835237384,9.798125267028809,8.999999999999999e-08,0.0,0.0,0.0,8.999999999999999e-08,0.0,0.0,0.0,8.999999999999999e-08
1719006571.5077167,27769,1719006571,501260992,base_link,0.017790487028377617,-0.0029103156222955685,-0.8747593159833035,-0.4842223187028114,1.0,0.0,0.0,0.0,1.0,0.0,0.0,0.0,1.0,0.0003875920665450394,9.480596781941128e-05,-0.00017691185348667204,1.2184696791468346e-07,0.0,0.0,0.0,1.2184696791468346e-07,0.0,0.0,0.0,1.2184696791468346e-07,-0.32303422689437866,-0.10488673299550891,9.801185607910156,8.999999999999999e-08,0.0,0.0,0.0,8.999999999999999e-08,0.0,0.0,0.0,8.999999999999999e-08
1719006571.51391,27770,1719006571,506260992,base_link,0.01778669973891221,-0.002908937288640361,-0.8747585784134546,-0.4842237306222365,1.0,0.0,0.0,0.0,1.0,0.0,0.0,0.0,1.0,0.0002541255089454353,-0.0005035296198911965,-0.0003851985675282776,1.2184696791468346e-07,0.0,0.0,0.0,1.2184696791468346e-07,0.0,0.0,0.0,1.2184696791468346e-07,-0.3359985947608948,-0.12345913797616839,9.792014122009277,8.999999999999999e-08,0.0,0.0,0.0,8.999999999999999e-08,0.0,0.0,0.0,8.999999999999999e-08
1719006571.5198238,27771,1719006571,511260992,base_link,0.017787298355869965,-0.0029100561557594234,-0.8747587680742729,-0.4842233723740242,1.0,0.0,0.0,0.0,1.0,0.0,0.0,0.0,1.0,5.726423114538193e-05,-0.00027381238760426646,-0.0003767082234844565,1.2184696791468346e-07,0.0,0.0,0.0,1.2184696791468346e-07,0.0,0.0,0.0,1.2184696791468346e-07,-0.34301725029945374,-0.11771563440561175,9.773550033569336,8.999999999999999e-08,0.0,0.0,0.0,8.999999999999999e-08,0.0,0.0,0.0,8.999999999999999e-08
1719006571.525478,27772,1719006571,521260992,base_link,0.017787774483549238,-0.002905801299693347,-0.8747589366616669,-0.48422320378663014,1.0,0.0,0.0,0.0,1.0,0.0,0.0,0.0,1.0,-0.000566289119888097,-0.00017315027071163058,-4.4708955101668814e-05,1.2184696791468346e-07,0.0,0.0,0.0,1.2184696791468346e-07,0.0,0.0,0.0,1.2184696791468346e-07,-0.3210281729698181,-0.12514910101890445,9.796207427978516,8.999999999999999e-08,0.0,0.0,0.0,8.999999999999999e-08,0.0,0.0,0.0,8.999999999999999e-08
1719006571.530851,27773,1719006571,526260992,base_link,0.01778782255729832,-0.00290646313692387,-0.874759273836455,-0.4842223608496599,1.0,0.0,0.0,0.0,1.0,0.0,0.0,0.0,1.0,-0.0004920486244373024,-9.922968456521628e-05,0.00021109497174620628,1.2184696791468346e-07,0.0,0.0,0.0,1.2184696791468346e-07,0.0,0.0,0.0,1.2184696791468346e-07,-0.33170822262763977,-0.11464431136846423,9.797126770019531,8.999999999999999e-08,0.0,0.0,0.0,8.999999999999999e-08,0.0,0.0,0.0,8.999999999999999e-08
1719006571.5407803,27774,1719006571,531260992,base_link,0.017788645737933297,-0.0029071190472538203,-0.8747593370567277,-0.4842222976293872,1.0,0.0,0.0,0.0,1.0,0.0,0.0,0.0,1.0,-7.347093196585774e-05,0.0002114283124683425,0.0001832732814364135,1.2184696791468346e-07,0.0,0.0,0.0,1.2184696791468346e-07,0.0,0.0,0.0,1.2184696791468346e-07,-0.33771491050720215,-0.11828070133924364,9.80579662322998,8.999999999999999e-08,0.0,0.0,0.0,8.999999999999999e-08,0.0,0.0,0.0,8.999999999999999e-08
1719006571.543372,27775,1719006571,536260992,base_link,0.01778993055826837,-0.002907730835101737,-0.8747594634972732,-0.48422208689514457,1.0,0.0,0.0,0.0,1.0,0.0,0.0,0.0,1.0,-4.940287908539176e-05,0.0005809973226860166,0.00014390534488484255,1.2184696791468346e-07,0.0,0.0,0.0,1.2184696791468346e-07,0.0,0.0,0.0,1.2184696791468346e-07,-0.33393144607543945,-0.12159235030412555,9.794522285461426,8.999999999999999e-08,0.0,0.0,0.0,8.999999999999999e-08,0.0,0.0,0.0,8.999999999999999e-08
1719006571.549413,27776,1719006571,541260992,base_link,0.01779171982369656,-0.002907842129123586,-0.874759611011243,-0.4842217707937807,1.0,0.0,0.0,0.0,1.0,0.0,0.0,0.0,1.0,-0.00019473722204566002,0.0002740444906521589,0.00025065353838726873,1.2184696791468346e-07,0.0,0.0,0.0,1.2184696791468346e-07,0.0,0.0,0.0,1.2184696791468346e-07,-0.32833632826805115,-0.1078302562236774,9.799247741699219,8.999999999999999e-08,0.0,0.0,0.0,8.999999999999999e-08,0.0,0.0,0.0,8.999999999999999e-08
1719006571.554141,27777,1719006571,551260992,base_link,0.017790028022855554,-0.002909868470574648,-0.8747612336649108,-0.48421888373465777,1.0,0.0,0.0,0.0,1.0,0.0,0.0,0.0,1.0,0.00021647446556016803,0.00016471883282065397,0.000539440312422812,1.2184696791468346e-07,0.0,0.0,0.0,1.2184696791468346e-07,0.0,0.0,0.0,1.2184696791468346e-07,-0.33816683292388916,-0.12041226774453997,9.794843673706055,8.999999999999999e-08,0.0,0.0,0.0,8.999999999999999e-08,0.0,0.0,0.0,8.999999999999999e-08
1719006571.560184,27778,1719006571,556261760,base_link,0.017788940107328365,-0.0029116360040340747,-0.8747613601054562,-0.4842185887067182,1.0,0.0,0.0,0.0,1.0,0.0,0.0,0.0,1.0,0.0006701875827275217,9.174365550279623e-05,0.00048181694000959396,1.2184696791468346e-07,0.0,0.0,0.0,1.2184696791468346e-07,0.0,0.0,0.0,1.2184696791468346e-07,-0.3245813548564911,-0.11343180388212085,9.793619155883789,8.999999999999999e-08,0.0,0.0,0.0,8.999999999999999e-08,0.0,0.0,0.0,8.999999999999999e-08
1719006571.5666132,27779,1719006571,561261760,base_link,0.017787930558597627,-0.002912149010205792,-0.8747620344550324,-0.4842175771823539,1.0,0.0,0.0,0.0,1.0,0.0,0.0,0.0,1.0,0.000536159670446068,-0.00016054912703111762,0.000352192553691566,1.2184696791468346e-07,0.0,0.0,0.0,1.2184696791468346e-07,0.0,0.0,0.0,1.2184696791468346e-07,-0.34307554364204407,-0.11518106609582782,9.793431282043457,8.999999999999999e-08,0.0,0.0,0.0,8.999999999999999e-08,0.0,0.0,0.0,8.999999999999999e-08
1719006571.5725,27780,1719006571,566261760,base_link,0.017786286172961196,-0.002909560271744913,-0.8747617394270929,-0.48421804079768754,1.0,0.0,0.0,0.0,1.0,0.0,0.0,0.0,1.0,-0.0003343220450915396,-0.00036300133797340095,-7.604132406413551e-05,1.2184696791468346e-07,0.0,0.0,0.0,1.2184696791468346e-07,0.0,0.0,0.0,1.2184696791468346e-07,-0.3373506963253021,-0.11359953135251878,9.818925857543945,8.999999999999999e-08,0.0,0.0,0.0,8.999999999999999e-08,0.0,0.0,0.0,8.999999999999999e-08
1719006571.580725,27781,1719006571,571261760,base_link,0.017787342478352,-0.0029088147993618758,-0.8747608543432741,-0.48421960023108246,1.0,0.0,0.0,0.0,1.0,0.0,0.0,0.0,1.0,-0.0005302729550749063,-0.0003856515977531672,-0.0003627534606494009,1.2184696791468346e-07,0.0,0.0,0.0,1.2184696791468346e-07,0.0,0.0,0.0,1.2184696791468346e-07,-0.3205335736274719,-0.10153878480195878,9.810500144958496,8.999999999999999e-08,0.0,0.0,0.0,8.999999999999999e-08,0.0,0.0,0.0,8.999999999999999e-08
1719006571.584348,27782,1719006571,581261760,base_link,0.017785950315262124,-0.0029051137792270127,-0.8747600114063039,-0.4842213703987199,1.0,0.0,0.0,0.0,1.0,0.0,0.0,0.0,1.0,-0.0006090746028348804,-0.0005197324207983912,-0.0006179437623359262,1.2184696791468346e-07,0.0,0.0,0.0,1.2184696791468346e-07,0.0,0.0,0.0,1.2184696791468346e-07,-0.33630257844924927,-0.11258780211210132,9.798895835876465,8.999999999999999e-08,0.0,0.0,0.0,8.999999999999999e-08,0.0,0.0,0.0,8.999999999999999e-08
1719006571.5910373,27783,1719006571,586261760,base_link,0.017786603591414044,-0.002903661030042404,-0.8747592316896065,-0.4842225715839025,1.0,0.0,0.0,0.0,1.0,0.0,0.0,0.0,1.0,-0.0005729661788791418,-0.00023118936223909264,-0.0005073803476989269,1.2184696791468346e-07,0.0,0.0,0.0,1.2184696791468346e-07,0.0,0.0,0.0,1.2184696791468346e-07,-0.3279092013835907,-0.12791512906551242,9.784834861755371,8.999999999999999e-08,0.0,0.0,0.0,8.999999999999999e-08,0.0,0.0,0.0,8.999999999999999e-08
1719006571.5964491,27784,1719006571,591261760,base_link,0.017786881497196413,-0.0029033528312126674,-0.874759273836455,-0.484222698024448,1.0,0.0,0.0,0.0,1.0,0.0,0.0,0.0,1.0,-0.0002968254266306758,-4.9809736083261696e-05,-0.00020885231788270175,1.2184696791468346e-07,0.0,0.0,0.0,1.2184696791468346e-07,0.0,0.0,0.0,1.2184696791468346e-07,-0.33198273181915283,-0.12882761657237887,9.790714263916016,8.999999999999999e-08,0.0,0.0,0.0,8.999999999999999e-08,0.0,0.0,0.0,8.999999999999999e-08
1719006571.6018224,27785,1719006571,596261760,base_link,0.01778564079934337,-0.0029034950768263923,-0.8747601589202737,-0.484221054297356,1.0,0.0,0.0,0.0,1.0,0.0,0.0,0.0,1.0,-0.00019864120986312628,-0.00039915944216772914,0.00022021512268111115,1.2184696791468346e-07,0.0,0.0,0.0,1.2184696791468346e-07,0.0,0.0,0.0,1.2184696791468346e-07,-0.32253730297088623,-0.09444735199212909,9.797767639160156,8.999999999999999e-08,0.0,0.0,0.0,8.999999999999999e-08,0.0,0.0,0.0,8.999999999999999e-08
1719006571.6079056,27786,1719006571,601261760,base_link,0.017784049755812086,-0.0029009833880729464,-0.8747606225356074,-0.48422016921353733,1.0,0.0,0.0,0.0,1.0,0.0,0.0,0.0,1.0,-0.0003142547211609781,-0.0004535852349363267,0.0002780941431410611,1.2184696791468346e-07,0.0,0.0,0.0,1.2184696791468346e-07,0.0,0.0,0.0,1.2184696791468346e-07,-0.33195212483406067,-0.11146635562181352,9.810230255126953,8.999999999999999e-08,0.0,0.0,0.0,8.999999999999999e-08,0.0,0.0,0.0,8.999999999999999e-08
1719006571.6150863,27787,1719006571,611261760,base_link,0.017787030328255217,-0.0029005276752734213,-0.8747599903328797,-0.48422130717844714,1.0,0.0,0.0,0.0,1.0,0.0,0.0,0.0,1.0,-0.0003990166005678475,0.0001297918061027303,-0.00015120155876502397,1.2184696791468346e-07,0.0,0.0,0.0,1.2184696791468346e-07,0.0,0.0,0.0,1.2184696791468346e-07,-0.3440548777580261,-0.12899325788020968,9.795289039611816,8.999999999999999e-08,0.0,0.0,0.0,8.999999999999999e-08,0.0,0.0,0.0,8.999999999999999e-08
1719006571.619902,27788,1719006571,616261760,base_link,0.017785310868544874,-0.0029025461141903887,-0.874760601462183,-0.4842201902869616,1.0,0.0,0.0,0.0,1.0,0.0,0.0,0.0,1.0,0.0001573137124069035,0.00018198402540292594,0.0001651649363338947,1.2184696791468346e-07,0.0,0.0,0.0,1.2184696791468346e-07,0.0,0.0,0.0,1.2184696791468346e-07,-0.32439884543418884,-0.1032325103878963,9.796222686767578,8.999999999999999e-08,0.0,0.0,0.0,8.999999999999999e-08,0.0,0.0,0.0,8.999999999999999e-08
1719006571.6263483,27789,1719006571,621261760,base_link,0.017785937802916475,-0.002901671567083788,-0.8747601378468494,-0.4842210753707803,1.0,0.0,0.0,0.0,1.0,0.0,0.0,0.0,1.0,7.869151886552572e-05,8.136454562190917e-05,-0.0002549531345721334,1.2184696791468346e-07,0.0,0.0,0.0,1.2184696791468346e-07,0.0,0.0,0.0,1.2184696791468346e-07,-0.3461587727069855,-0.10872450470924258,9.789836883544922,8.999999999999999e-08,0.0,0.0,0.0,8.999999999999999e-08,0.0,0.0,0.0,8.999999999999999e-08
1719006571.6319182,27790,1719006571,626261760,base_link,0.017786606225592076,-0.002900725238625817,-0.8747592106161822,-0.4842227612447208,1.0,0.0,0.0,0.0,1.0,0.0,0.0,0.0,1.0,-0.00011746300151571631,0.00021559526794590053,-0.0002791735460050404,1.2184696791468346e-07,0.0,0.0,0.0,1.2184696791468346e-07,0.0,0.0,0.0,1.2184696791468346e-07,-0.3323344886302948,-0.12476509064435838,9.806581497192383,8.999999999999999e-08,0.0,0.0,0.0,8.999999999999999e-08,0.0,0.0,0.0,8.999999999999999e-08
1719006571.6382058,27791,1719006571,631261760,base_link,0.017787164012790336,-0.0029027081161393533,-0.8747590209553638,-0.484222866611842,1.0,0.0,0.0,0.0,1.0,0.0,0.0,0.0,1.0,-9.540602331981063e-05,0.0004197136149741709,-0.00010977807687595492,1.2184696791468346e-07,0.0,0.0,0.0,1.2184696791468346e-07,0.0,0.0,0.0,1.2184696791468346e-07,-0.3266380727291107,-0.11832693964242816,9.799449920654297,8.999999999999999e-08,0.0,0.0,0.0,8.999999999999999e-08,0.0,0.0,0.0,8.999999999999999e-08
1719006571.6440797,27792,1719006571,641261760,base_link,0.01778931350206439,-0.0029009866807954855,-0.8747604960950618,-0.4842202113603858,1.0,0.0,0.0,0.0,1.0,0.0,0.0,0.0,1.0,-0.0003414237289689481,0.0002750497951637954,0.0003965380601584911,1.2184696791468346e-07,0.0,0.0,0.0,1.2184696791468346e-07,0.0,0.0,0.0,1.2184696791468346e-07,-0.33180853724479675,-0.10667777806520343,9.801124572753906,8.999999999999999e-08,0.0,0.0,0.0,8.999999999999999e-08,0.0,0.0,0.0,8.999999999999999e-08
1719006571.6532092,27793,1719006571,646261760,base_link,0.0177891409634033,-0.0029037183234145985,-0.8747615919131231,-0.4842184411927483,1.0,0.0,0.0,0.0,1.0,0.0,0.0,0.0,1.0,-1.3179960660636425e-05,0.0002745904203038663,0.0006340367253869772,1.2184696791468346e-07,0.0,0.0,0.0,1.2184696791468346e-07,0.0,0.0,0.0,1.2184696791468346e-07,-0.34009888768196106,-0.11799158900976062,9.794974327087402,8.999999999999999e-08,0.0,0.0,0.0,8.999999999999999e-08,0.0,0.0,0.0,8.999999999999999e-08
1719006571.657954,27794,1719006571,651261760,base_link,0.017790291440658745,-0.002900801629788742,-0.874761170444638,-0.48421911554232455,1.0,0.0,0.0,0.0,1.0,0.0,0.0,0.0,1.0,-0.00045127232442609966,4.344162152847276e-05,8.016987703740597e-05,1.2184696791468346e-07,0.0,0.0,0.0,1.2184696791468346e-07,0.0,0.0,0.0,1.2184696791468346e-07,-0.3179444670677185,-0.11825814098119615,9.822243690490723,8.999999999999999e-08,0.0,0.0,0.0,8.999999999999999e-08,0.0,0.0,0.0,8.999999999999999e-08
1719006571.6641567,27795,1719006571,656264064,base_link,0.017790167634291247,-0.0028997993250475924,-0.8747614022523048,-0.4842187151472637,1.0,0.0,0.0,0.0,1.0,0.0,0.0,0.0,1.0,-0.0003911282401531935,-0.0002723991929087788,3.653601743280891e-05,1.2184696791468346e-07,0.0,0.0,0.0,1.2184696791468346e-07,0.0,0.0,0.0,1.2184696791468346e-07,-0.3337557315826416,-0.12791630625724673,9.81477165222168,8.999999999999999e-08,0.0,0.0,0.0,8.999999999999999e-08,0.0,0.0,0.0,8.999999999999999e-08
1719006571.6713672,27796,1719006571,666264064,base_link,0.017788209122924507,-0.0029017657389484286,-0.8747627509514571,-0.48421627063005,1.0,0.0,0.0,0.0,1.0,0.0,0.0,0.0,1.0,0.00030008360045030713,-0.00010549258149694646,0.0004337382270023227,1.2184696791468346e-07,0.0,0.0,0.0,1.2184696791468346e-07,0.0,0.0,0.0,1.2184696791468346e-07,-0.32511410117149353,-0.12075782567262529,9.808991432189941,8.999999999999999e-08,0.0,0.0,0.0,8.999999999999999e-08,0.0,0.0,0.0,8.999999999999999e-08
1719006571.6762605,27797,1719006571,671264064,base_link,0.01778725686756596,-0.0029023623802726614,-0.8747621187487294,-0.4842174085949598,1.0,0.0,0.0,0.0,1.0,0.0,0.0,0.0,1.0,0.000469039601739496,-8.997584518510847e-05,0.00014707108493894339,1.2184696791468346e-07,0.0,0.0,0.0,1.2184696791468346e-07,0.0,0.0,0.0,1.2184696791468346e-07,-0.3446972370147705,-0.11653392761945604,9.80610466003418,8.999999999999999e-08,0.0,0.0,0.0,8.999999999999999e-08,0.0,0.0,0.0,8.999999999999999e-08
1719006571.6822648,27798,1719006571,676264064,base_link,0.017786713568346876,-0.0029015938588318455,-0.8747606225356073,-0.48422008491984025,1.0,0.0,0.0,0.0,1.0,0.0,0.0,0.0,1.0,0.000193790125194937,-0.0003882629680447281,-0.0005740781198255718,1.2184696791468346e-07,0.0,0.0,0.0,1.2184696791468346e-07,0.0,0.0,0.0,1.2184696791468346e-07,-0.32217541337013245,-0.11278457939624667,9.78929615020752,8.999999999999999e-08,0.0,0.0,0.0,8.999999999999999e-08,0.0,0.0,0.0,8.999999999999999e-08
1719006571.6844425,27799,1719006571,681264064,base_link,0.017786869643395268,-0.0029005197727393264,-0.8747604750216375,-0.4842204010212041,1.0,0.0,0.0,0.0,1.0,0.0,0.0,0.0,1.0,-1.0742631275206804e-05,-0.00038796197623014455,-0.0006123790517449379,1.2184696791468346e-07,0.0,0.0,0.0,1.2184696791468346e-07,0.0,0.0,0.0,1.2184696791468346e-07,-0.32217541337013245,-0.11278457939624667,9.78929615020752,8.999999999999999e-08,0.0,0.0,0.0,8.999999999999999e-08,0.0,0.0,0.0,8.999999999999999e-08
1719006571.6915147,27800,1719006571,686264064,base_link,0.01778586733865412,-0.0029016722256282952,-0.8747614865460017,-0.4842185465598696,1.0,0.0,0.0,0.0,1.0,0.0,0.0,0.0,1.0,6.0382240917533636e-05,-0.0001780702150426805,-5.839741788804509e-06,1.2184696791468346e-07,0.0,0.0,0.0,1.2184696791468346e-07,0.0,0.0,0.0,1.2184696791468346e-07,-0.32481443881988525,-0.12088714540004611,9.795708656311035,8.999999999999999e-08,0.0,0.0,0.0,8.999999999999999e-08,0.0,0.0,0.0,8.999999999999999e-08
1719006571.6985178,27801,1719006571,691264064,base_link,0.01778716993969091,-0.0028991579026968173,-0.874761339032032,-0.48421886266123343,1.0,0.0,0.0,0.0,1.0,0.0,0.0,0.0,1.0,-0.0007415481377393007,-0.00012069487274857237,0.0001398629974573851,1.2184696791468346e-07,0.0,0.0,0.0,1.2184696791468346e-07,0.0,0.0,0.0,1.2184696791468346e-07,-0.33553746342658997,-0.12151958048343539,9.79758358001709,8.999999999999999e-08,0.0,0.0,0.0,8.999999999999999e-08,0.0,0.0,0.0,8.999999999999999e-08
1719006571.7056754,27802,1719006571,701264064,base_link,0.017786976327605564,-0.0028969689007522833,-0.8747612336649107,-0.48421896802835473,1.0,0.0,0.0,0.0,1.0,0.0,0.0,0.0,1.0,-0.0006174318259581923,-0.0001958485518116504,-8.510891348123527e-06,1.2184696791468346e-07,0.0,0.0,0.0,1.2184696791468346e-07,0.0,0.0,0.0,1.2184696791468346e-07,-0.3261425793170929,-0.1292339414358127,9.78173542022705,8.999999999999999e-08,0.0,0.0,0.0,8.999999999999999e-08,0.0,0.0,0.0,8.999999999999999e-08
1719006571.712085,27803,1719006571,706264064,base_link,0.017784324368871916,-0.0028963966255748457,-0.8747611915180622,-0.4842191787625973,1.0,0.0,0.0,0.0,1.0,0.0,0.0,0.0,1.0,-5.641754250973463e-05,-0.00048130517825484276,-0.00010823894990608091,1.2184696791468346e-07,0.0,0.0,0.0,1.2184696791468346e-07,0.0,0.0,0.0,1.2184696791468346e-07,-0.338951051235199,-0.13223260641097903,9.791083335876465,8.999999999999999e-08,0.0,0.0,0.0,8.999999999999999e-08,0.0,0.0,0.0,8.999999999999999e-08
1719006571.7178369,27804,1719006571,711264064,base_link,0.01778147287115235,-0.0028968115086148755,-0.8747608543432741,-0.48421993740587055,1.0,0.0,0.0,0.0,1.0,0.0,0.0,0.0,1.0,0.00019762408919632435,-0.0007312131929211318,-9.523623157292595e-05,1.2184696791468346e-07,0.0,0.0,0.0,1.2184696791468346e-07,0.0,0.0,0.0,1.2184696791468346e-07,-0.3347264230251312,-0.11543065309524417,9.796525955200195,8.999999999999999e-08,0.0,0.0,0.0,8.999999999999999e-08,0.0,0.0,0.0,8.999999999999999e-08
1719006571.7241788,27805,1719006571,716264064,base_link,0.017781825192464122,-0.0028942477948452976,-0.8747622662626992,-0.4842174296683841,1.0,0.0,0.0,0.0,1.0,0.0,0.0,0.0,1.0,-0.00012919370783492923,-0.0006129932589828968,0.000396552321035415,1.2184696791468346e-07,0.0,0.0,0.0,1.2184696791468346e-07,0.0,0.0,0.0,1.2184696791468346e-07,-0.3226577937602997,-0.12487643957137942,9.79562759399414,8.999999999999999e-08,0.0,0.0,0.0,8.999999999999999e-08,0.0,0.0,0.0,8.999999999999999e-08
1719006571.731007,27806,1719006571,721264064,base_link,0.017781758679468816,-0.002894947827657283,-0.8747616972802443,-0.48421842011932414,1.0,0.0,0.0,0.0,1.0,0.0,0.0,0.0,1.0,7.899332558736205e-05,-4.806968354387207e-05,0.000155341112986207,1.2184696791468346e-07,0.0,0.0,0.0,1.2184696791468346e-07,0.0,0.0,0.0,1.2184696791468346e-07,-0.322735071182251,-0.12423771619796632,9.808977127075195,8.999999999999999e-08,0.0,0.0,0.0,8.999999999999999e-08,0.0,0.0,0.0,8.999999999999999e-08
1719006571.734201,27807,1719006571,731264064,base_link,0.01778175275256824,-0.0028937696915325036,-0.8747627088046086,-0.4842166499516866,1.0,0.0,0.0,0.0,1.0,0.0,0.0,0.0,1.0,-0.00021549593657255173,-4.5369924919214066e-05,0.0002978324773721397,1.2184696791468346e-07,0.0,0.0,0.0,1.2184696791468346e-07,0.0,0.0,0.0,1.2184696791468346e-07,-0.3325972259044647,-0.12406127154826997,9.813323020935059,8.999999999999999e-08,0.0,0.0,0.0,8.999999999999999e-08,0.0,0.0,0.0,8.999999999999999e-08
1719006571.7404966,27808,1719006571,736264064,base_link,0.01778152555471299,-0.002893420004398764,-0.8747634674478818,-0.4842153012525343,1.0,0.0,0.0,0.0,1.0,0.0,0.0,0.0,1.0,-0.00032771285623311996,-0.0001503103412687778,0.000512368802446872,1.2184696791468346e-07,0.0,0.0,0.0,1.2184696791468346e-07,0.0,0.0,0.0,1.2184696791468346e-07,-0.34606844186782837,-0.13858248293399691,9.821423530578613,8.999999999999999e-08,0.0,0.0,0.0,8.999999999999999e-08,0.0,0.0,0.0,8.999999999999999e-08
1719006571.7480335,27809,1719006571,741264064,base_link,0.017780429736651705,-0.0028919909628164413,-0.8747649004407311,-0.48421277244162364,1.0,0.0,0.0,0.0,1.0,0.0,0.0,0.0,1.0,-0.0006036842241883278,-0.00011467438162071625,0.00046395306708291173,1.2184696791468346e-07,0.0,0.0,0.0,1.2184696791468346e-07,0.0,0.0,0.0,1.2184696791468346e-07,-0.3154197633266449,-0.12502099573612094,9.803041458129883,8.999999999999999e-08,0.0,0.0,0.0,8.999999999999999e-08,0.0,0.0,0.0,8.999999999999999e-08
1719006571.7511787,27810,1719006571,746264064,base_link,0.01778362367751542,-0.002889659715258183,-0.8747645211190945,-0.48421340464435136,1.0,0.0,0.0,0.0,1.0,0.0,0.0,0.0,1.0,-0.0008132488001137972,5.342684744391632e-06,0.0003384495503269136,1.2184696791468346e-07,0.0,0.0,0.0,1.2184696791468346e-07,0.0,0.0,0.0,1.2184696791468346e-07,-0.32989490032196045,-0.11710922420024751,9.806373596191406,8.999999999999999e-08,0.0,0.0,0.0,8.999999999999999e-08,0.0,0.0,0.0,8.999999999999999e-08
1719006571.7577958,27811,1719006571,751264064,base_link,0.01778301386530103,-0.0028901602090842487,-0.8747637203289729,-0.4842148797840492,1.0,0.0,0.0,0.0,1.0,0.0,0.0,0.0,1.0,-0.0004460484196897596,4.2525214666966335e-05,-0.00012685888214036822,1.2184696791468346e-07,0.0,0.0,0.0,1.2184696791468346e-07,0.0,0.0,0.0,1.2184696791468346e-07,-0.33318135142326355,-0.11527188122272372,9.794073104858398,8.999999999999999e-08,0.0,0.0,0.0,8.999999999999999e-08,0.0,0.0,0.0,8.999999999999999e-08
1719006571.7623663,27812,1719006571,756263808,base_link,0.017783225258088092,-0.002888771338716914,-0.8747637203289729,-0.4842146269029581,1.0,0.0,0.0,0.0,1.0,0.0,0.0,0.0,1.0,-0.0002755148452706635,5.317297473084181e-05,-4.63416799902916e-05,1.2184696791468346e-07,0.0,0.0,0.0,1.2184696791468346e-07,0.0,0.0,0.0,1.2184696791468346e-07,-0.3310181498527527,-0.12727494537830233,9.80396842956543,8.999999999999999e-08,0.0,0.0,0.0,8.999999999999999e-08,0.0,0.0,0.0,8.999999999999999e-08
1719006571.7704315,27813,1719006571,761263808,base_link,0.017783625653148945,-0.002890002816946842,-0.8747646054127916,-0.4842130674695632,1.0,0.0,0.0,0.0,1.0,0.0,0.0,0.0,1.0,-6.985384970903397e-06,0.00017985078739002347,2.3947388399392343e-05,1.2184696791468346e-07,0.0,0.0,0.0,1.2184696791468346e-07,0.0,0.0,0.0,1.2184696791468346e-07,-0.32427114248275757,-0.1241709589958179,9.796357154846191,8.999999999999999e-08,0.0,0.0,0.0,8.999999999999999e-08,0.0,0.0,0.0,8.999999999999999e-08
1719006571.774137,27814,1719006571,771263808,base_link,0.017784739910456454,-0.0028904414075891587,-0.874763488521306,-0.48421511159171604,1.0,0.0,0.0,0.0,1.0,0.0,0.0,0.0,1.0,-7.569364970549941e-05,0.0003110197430942207,-0.0002472420746926219,1.2184696791468346e-07,0.0,0.0,0.0,1.2184696791468346e-07,0.0,0.0,0.0,1.2184696791468346e-07,-0.33514779806137085,-0.12086935341358064,9.807088851928711,8.999999999999999e-08,0.0,0.0,0.0,8.999999999999999e-08,0.0,0.0,0.0,8.999999999999999e-08
1719006571.7805088,27815,1719006571,776263808,base_link,0.017786066877640037,-0.002889966596998902,-0.8747637203289729,-0.48421471119665516,1.0,0.0,0.0,0.0,1.0,0.0,0.0,0.0,1.0,-7.359246956184506e-05,0.0003457800485193729,-0.00022871894179843372,1.2184696791468346e-07,0.0,0.0,0.0,1.2184696791468346e-07,0.0,0.0,0.0,1.2184696791468346e-07,-0.3480685353279114,-0.11905789375305056,9.792400360107422,8.999999999999999e-08,0.0,0.0,0.0,8.999999999999999e-08,0.0,0.0,0.0,8.999999999999999e-08
1719006571.786618,27816,1719006571,781263808,base_link,0.017784643762958286,-0.0028910788786728854,-0.8747630670528209,-0.48421587023498924,1.0,0.0,0.0,0.0,1.0,0.0,0.0,0.0,1.0,0.00010913226287811995,0.00011003130930475888,-0.00027392676565796137,1.2184696791468346e-07,0.0,0.0,0.0,1.2184696791468346e-07,0.0,0.0,0.0,1.2184696791468346e-07,-0.3243754208087921,-0.11805723607540011,9.792773246765137,8.999999999999999e-08,0.0,0.0,0.0,8.999999999999999e-08,0.0,0.0,0.0,8.999999999999999e-08
1719006571.7923396,27817,1719006571,786263808,base_link,0.01778514491532886,-0.002889668934881294,-0.874763235640215,-0.48421553306020115,1.0,0.0,0.0,0.0,1.0,0.0,0.0,0.0,1.0,-0.00015963223995640874,-5.220165621722118e-05,-8.161156438291073e-05,1.2184696791468346e-07,0.0,0.0,0.0,1.2184696791468346e-07,0.0,0.0,0.0,1.2184696791468346e-07,-0.3398958146572113,-0.11705517768859744,9.800708770751953,8.999999999999999e-08,0.0,0.0,0.0,8.999999999999999e-08,0.0,0.0,0.0,8.999999999999999e-08
1719006571.798573,27818,1719006571,791263808,base_link,0.01778583111870618,-0.002890201038843745,-0.8747626245109116,-0.4842166499516867,1.0,0.0,0.0,0.0,1.0,0.0,0.0,0.0,1.0,-0.00028763071168214083,0.00019951879221480334,-0.0003541707992553711,1.2184696791468346e-07,0.0,0.0,0.0,1.2184696791468346e-07,0.0,0.0,0.0,1.2184696791468346e-07,-0.3317109942436218,-0.126789405941962,9.809212684631348,8.999999999999999e-08,0.0,0.0,0.0,8.999999999999999e-08,0.0,0.0,0.0,8.999999999999999e-08
1719006571.8058233,27819,1719006571,801263808,base_link,0.017783818606689785,-0.002889069659379031,-0.8747622873361235,-0.4842174085949598,1.0,0.0,0.0,0.0,1.0,0.0,0.0,0.0,1.0,-8.219853043556213e-05,-0.00013029813999310139,-0.00022214991622604427,1.2184696791468346e-07,0.0,0.0,0.0,1.2184696791468346e-07,0.0,0.0,0.0,1.2184696791468346e-07,-0.345403790473938,-0.10039807856082796,9.805436134338379,8.999999999999999e-08,0.0,0.0,0.0,8.999999999999999e-08,0.0,0.0,0.0,8.999999999999999e-08
1719006571.8127136,27820,1719006571,806263808,base_link,0.01778343138251909,-0.0028897558627563476,-0.874762413776669,-0.4842169449796262,1.0,0.0,0.0,0.0,1.0,0.0,0.0,0.0,1.0,0.00024834065698087215,-0.00029674972756765783,3.1038827728480135e-05,1.2184696791468346e-07,0.0,0.0,0.0,1.2184696791468346e-07,0.0,0.0,0.0,1.2184696791468346e-07,-0.3245992064476013,-0.13196122646331668,9.809136390686035,8.999999999999999e-08,0.0,0.0,0.0,8.999999999999999e-08,0.0,0.0,0.0,8.999999999999999e-08
1719006571.816779,27821,1719006571,811263808,base_link,0.017782432370500482,-0.002890723264638576,-0.8747614654725775,-0.48421890480808194,1.0,0.0,0.0,0.0,1.0,0.0,0.0,0.0,1.0,9.284575935453176e-05,-0.00031019764719530945,-0.00025757230469025666,1.2184696791468346e-07,0.0,0.0,0.0,1.2184696791468346e-07,0.0,0.0,0.0,1.2184696791468346e-07,-0.3245992064476013,-0.13196122646331668,9.809136390686035,8.999999999999999e-08,0.0,0.0,0.0,8.999999999999999e-08,0.0,0.0,0.0,8.999999999999999e-08
1719006571.8224454,27822,1719006571,816263808,base_link,0.017781213404616206,-0.002887050561917556,-0.8747611493712136,-0.48421938949683985,1.0,0.0,0.0,0.0,1.0,0.0,0.0,0.0,1.0,-0.00017866480629891157,-0.0006843770388513803,-0.00033041031565517176,1.2184696791468346e-07,0.0,0.0,0.0,1.2184696791468346e-07,0.0,0.0,0.0,1.2184696791468346e-07,-0.32423973083496094,-0.10157807171344638,9.797529220581055,8.999999999999999e-08,0.0,0.0,0.0,8.999999999999999e-08,0.0,0.0,0.0,8.999999999999999e-08
1719006571.8299553,27823,1719006571,821263808,base_link,0.0177799259501031,-0.0028871341970700686,-0.8747613811788805,-0.48421898910177896,1.0,0.0,0.0,0.0,1.0,0.0,0.0,0.0,1.0,8.815550245344639e-07,-0.0005323999794200063,-0.00029975947109051043,1.2184696791468346e-07,0.0,0.0,0.0,1.2184696791468346e-07,0.0,0.0,0.0,1.2184696791468346e-07,-0.333925724029541,-0.11418361961841464,9.800670623779297,8.999999999999999e-08,0.0,0.0,0.0,8.999999999999999e-08,0.0,0.0,0.0,8.999999999999999e-08
1719006571.834269,27824,1719006571,831263808,base_link,0.017779407017030808,-0.0028872909306629697,-0.8747607489761529,-0.48422012706668877,1.0,0.0,0.0,0.0,1.0,0.0,0.0,0.0,1.0,-8.658348815515637e-05,-0.00026258229627273977,-0.0001850885455496609,1.2184696791468346e-07,0.0,0.0,0.0,1.2184696791468346e-07,0.0,0.0,0.0,1.2184696791468346e-07,-0.35003334283828735,-0.1250905990600574,9.801987648010254,8.999999999999999e-08,0.0,0.0,0.0,8.999999999999999e-08,0.0,0.0,0.0,8.999999999999999e-08
1719006571.8434422,27825,1719006571,836263808,base_link,0.017779212087856447,-0.0028868470716645893,-0.874761992308184,-0.48421812509138457,1.0,0.0,0.0,0.0,1.0,0.0,0.0,0.0,1.0,-5.314574809744954e-05,-4.50765728601254e-05,0.0004176480579189956,1.2184696791468346e-07,0.0,0.0,0.0,1.2184696791468346e-07,0.0,0.0,0.0,1.2184696791468346e-07,-0.3371869921684265,-0.11140815913677096,9.795872688293457,8.999999999999999e-08,0.0,0.0,0.0,8.999999999999999e-08,0.0,0.0,0.0,8.999999999999999e-08
1719006571.8467386,27826,1719006571,841263808,base_link,0.017779101452379105,-0.0028882313322203678,-0.8747622451892749,-0.4842176193292024,1.0,0.0,0.0,0.0,1.0,0.0,0.0,0.0,1.0,0.00013562501408159733,0.00018816970987245446,0.00045202200999483466,1.2184696791468346e-07,0.0,0.0,0.0,1.2184696791468346e-07,0.0,0.0,0.0,1.2184696791468346e-07,-0.3134317398071289,-0.1153000295162189,9.787038803100586,8.999999999999999e-08,0.0,0.0,0.0,8.999999999999999e-08,0.0,0.0,0.0,8.999999999999999e-08
1719006571.852143,27827,1719006571,846263808,base_link,0.017780296052116586,-0.0028894206636017853,-0.8747612125914865,-0.4842192419828701,1.0,0.0,0.0,0.0,1.0,0.0,0.0,0.0,1.0,4.403089405968785e-05,0.0004241779097355902,-1.3563025277108007e-05,1.2184696791468346e-07,0.0,0.0,0.0,1.2184696791468346e-07,0.0,0.0,0.0,1.2184696791468346e-07,-0.3182685077190399,-0.10042517632245897,9.807012557983398,8.999999999999999e-08,0.0,0.0,0.0,8.999999999999999e-08,0.0,0.0,0.0,8.999999999999999e-08
1719006571.858559,27828,1719006571,851263296,base_link,0.01778077086270684,-0.002889172392322275,-0.8747621187487294,-0.484217830063445,1.0,0.0,0.0,0.0,1.0,0.0,0.0,0.0,1.0,-5.8697827626019716e-05,0.000343421968864277,-5.777156911790375e-05,1.2184696791468346e-07,0.0,0.0,0.0,1.2184696791468346e-07,0.0,0.0,0.0,1.2184696791468346e-07,-0.3547763526439667,-0.12117953598499179,9.797008514404297,8.999999999999999e-08,0.0,0.0,0.0,8.999999999999999e-08,0.0,0.0,0.0,8.999999999999999e-08
1719006571.864393,27829,1719006571,861263296,base_link,0.017783677019620567,-0.0028913278084969026,-0.8747612758117592,-0.48421909446890027,1.0,0.0,0.0,0.0,1.0,0.0,0.0,0.0,1.0,1.96414184756577e-05,0.0006477371789515018,-0.0001524609397165478,1.2184696791468346e-07,0.0,0.0,0.0,1.2184696791468346e-07,0.0,0.0,0.0,1.2184696791468346e-07,-0.32104063034057617,-0.12302620708942294,9.7891845703125,8.999999999999999e-08,0.0,0.0,0.0,8.999999999999999e-08,0.0,0.0,0.0,8.999999999999999e-08
1719006571.8703341,27830,1719006571,866263296,base_link,0.017783391211304105,-0.0028934404192785122,-0.8747606646824558,-0.4842201270666888,1.0,0.0,0.0,0.0,1.0,0.0,0.0,0.0,1.0,0.00044882320798933506,0.0006058611907064915,-0.0002032883057836444,1.2184696791468346e-07,0.0,0.0,0.0,1.2184696791468346e-07,0.0,0.0,0.0,1.2184696791468346e-07,-0.3359701335430145,-0.09881306439638018,9.791090965270996,8.999999999999999e-08,0.0,0.0,0.0,8.999999999999999e-08,0.0,0.0,0.0,8.999999999999999e-08
1719006571.8765965,27831,1719006571,871263296,base_link,0.017784170928001556,-0.0028948075576770843,-0.8747607279027285,-0.484219979552719,1.0,0.0,0.0,0.0,1.0,0.0,0.0,0.0,1.0,0.0005057952366769314,0.0005459774984046817,-0.00014952299534343188,1.2184696791468346e-07,0.0,0.0,0.0,1.2184696791468346e-07,0.0,0.0,0.0,1.2184696791468346e-07,-0.337442010641098,-0.11929792165756106,9.792901039123535,8.999999999999999e-08,0.0,0.0,0.0,8.999999999999999e-08,0.0,0.0,0.0,8.999999999999999e-08
1719006571.8834767,27832,1719006571,876263296,base_link,0.017783994438073415,-0.002896273477751853,-0.874761086150941,-0.48421953701080966,1.0,0.0,0.0,0.0,1.0,0.0,0.0,0.0,1.0,0.0005389649886637926,0.00046667910646647215,-4.3086067307740504e-05,1.2184696791468346e-07,0.0,0.0,0.0,1.2184696791468346e-07,0.0,0.0,0.0,1.2184696791468346e-07,-0.3217487037181854,-0.13873724639415622,9.806319236755371,8.999999999999999e-08,0.0,0.0,0.0,8.999999999999999e-08,0.0,0.0,0.0,8.999999999999999e-08
1719006571.8865333,27833,1719006571,881263296,base_link,0.01778359799427961,-0.002895708446564005,-0.8747608754166984,-0.48421991633244627,1.0,0.0,0.0,0.0,1.0,0.0,0.0,0.0,1.0,0.0001745186746120453,2.729895641095937e-05,6.49553257972002e-05,1.2184696791468346e-07,0.0,0.0,0.0,1.2184696791468346e-07,0.0,0.0,0.0,1.2184696791468346e-07,-0.3350922167301178,-0.10881403088569522,9.800931930541992,8.999999999999999e-08,0.0,0.0,0.0,8.999999999999999e-08,0.0,0.0,0.0,8.999999999999999e-08
1719006571.8921943,27834,1719006571,886263296,base_link,0.01778218805048802,-0.002894725239613585,-0.8747610440040925,-0.4842195791576582,1.0,0.0,0.0,0.0,1.0,0.0,0.0,0.0,1.0,8.306175004690886e-05,-0.00026081333635374904,0.00011046219151467088,1.2184696791468346e-07,0.0,0.0,0.0,1.2184696791468346e-07,0.0,0.0,0.0,1.2184696791468346e-07,-0.3332241177558899,-0.1241941899061191,9.793729782104492,8.999999999999999e-08,0.0,0.0,0.0,8.999999999999999e-08,0.0,0.0,0.0,8.999999999999999e-08
1719006571.8984048,27835,1719006571,891263296,base_link,0.017782965791551947,-0.002896402552475418,-0.8747611282977894,-0.4842194105702641,1.0,0.0,0.0,0.0,1.0,0.0,0.0,0.0,1.0,-9.861862054094672e-05,7.969222497195007e-05,0.00011800287757068871,1.2184696791468346e-07,0.0,0.0,0.0,1.2184696791468346e-07,0.0,0.0,0.0,1.2184696791468346e-07,-0.32897400856018066,-0.12231001257896304,9.800935745239258,8.999999999999999e-08,0.0,0.0,0.0,8.999999999999999e-08,0.0,0.0,0.0,8.999999999999999e-08
1719006571.9045343,27836,1719006571,896263296,base_link,0.017783850875370676,-0.0028959204978955748,-0.8747617394270928,-0.48421829367877856,1.0,0.0,0.0,0.0,1.0,0.0,0.0,0.0,1.0,9.986129589378834e-05,0.00040470148087479174,0.00014151685172691936,1.2184696791468346e-07,0.0,0.0,0.0,1.2184696791468346e-07,0.0,0.0,0.0,1.2184696791468346e-07,-0.3348766565322876,-0.10494954884052156,9.810160636901855,8.999999999999999e-08,0.0,0.0,0.0,8.999999999999999e-08,0.0,0.0,0.0,8.999999999999999e-08
1719006571.908056,27837,1719006571,901263296,base_link,0.017784134708053616,-0.002897406832850092,-0.8747614654725776,-0.484218820514385,1.0,0.0,0.0,0.0,1.0,0.0,0.0,0.0,1.0,0.0001933800522238016,0.00015240267384797335,3.4883851185441e-05,1.2184696791468346e-07,0.0,0.0,0.0,1.2184696791468346e-07,0.0,0.0,0.0,1.2184696791468346e-07,-0.3348766565322876,-0.10494954884052156,9.810160636901855,8.999999999999999e-08,0.0,0.0,0.0,8.999999999999999e-08,0.0,0.0,0.0,8.999999999999999e-08
1719006571.9132566,27838,1719006571,906263296,base_link,0.017783420187262457,-0.002897379832525264,-0.8747611282977894,-0.4842194105702641,1.0,0.0,0.0,0.0,1.0,0.0,0.0,0.0,1.0,0.00030738022178411484,-1.0268311598338219e-05,-0.0002614420955069363,1.2184696791468346e-07,0.0,0.0,0.0,1.2184696791468346e-07,0.0,0.0,0.0,1.2184696791468346e-07,-0.3411860466003418,-0.11737972497939944,9.796220779418945,8.999999999999999e-08,0.0,0.0,0.0,8.999999999999999e-08,0.0,0.0,0.0,8.999999999999999e-08
1719006571.9206445,27839,1719006571,916263296,base_link,0.017779852193118204,-0.0028993660027613398,-0.8747605593153345,-0.4842206539022952,1.0,0.0,0.0,0.0,1.0,0.0,0.0,0.0,1.0,0.0004511754959821701,-0.0003262268146499992,-0.00028366420883685345,1.2184696791468346e-07,0.0,0.0,0.0,1.2184696791468346e-07,0.0,0.0,0.0,1.2184696791468346e-07,-0.33843138813972473,-0.12017214298248172,9.79877758026123,8.999999999999999e-08,0.0,0.0,0.0,8.999999999999999e-08,0.0,0.0,0.0,8.999999999999999e-08
1719006571.9273062,27840,1719006571,921263296,base_link,0.017779238429636766,-0.0028983320878838066,-0.8747609597103954,-0.4842199163324462,1.0,0.0,0.0,0.0,1.0,0.0,0.0,0.0,1.0,0.0002329433336853981,-0.0004273270023986697,-2.7480593416839787e-05,1.2184696791468346e-07,0.0,0.0,0.0,1.2184696791468346e-07,0.0,0.0,0.0,1.2184696791468346e-07,-0.34156033396720886,-0.13100315630435824,9.794451713562012,8.999999999999999e-08,0.0,0.0,0.0,8.999999999999999e-08,0.0,0.0,0.0,8.999999999999999e-08
1719006571.9332805,27841,1719006571,926263296,base_link,0.017778017488118966,-0.0028983492100410147,-0.8747608332698499,-0.4842201270666888,1.0,0.0,0.0,0.0,1.0,0.0,0.0,0.0,1.0,7.694517262279987e-05,-0.00039127084892243147,6.57100463286047e-06,1.2184696791468346e-07,0.0,0.0,0.0,1.2184696791468346e-07,0.0,0.0,0.0,1.2184696791468346e-07,-0.3220790922641754,-0.13029009103774905,9.79786491394043,8.999999999999999e-08,0.0,0.0,0.0,8.999999999999999e-08,0.0,0.0,0.0,8.999999999999999e-08
1719006571.9384885,27842,1719006571,931263296,base_link,0.0177779378042335,-0.002897157903026075,-0.8747611072243652,-0.4842196845247795,1.0,0.0,0.0,0.0,1.0,0.0,0.0,0.0,1.0,-2.2221473045647144e-05,-0.00027585221687331796,-0.00018762797117233274,1.2184696791468346e-07,0.0,0.0,0.0,1.2184696791468346e-07,0.0,0.0,0.0,1.2184696791468346e-07,-0.33738017082214355,-0.11585071682929873,9.787566184997559,8.999999999999999e-08,0.0,0.0,0.0,8.999999999999999e-08,0.0,0.0,0.0,8.999999999999999e-08
1719006571.9443254,27843,1719006571,941263296,base_link,0.017774133392610882,-0.002899913911791982,-0.8747612758117592,-0.4842193473499914,1.0,0.0,0.0,0.0,1.0,0.0,0.0,0.0,1.0,0.0005349292187020183,-0.00044649577466771007,5.197210703045135e-05,1.2184696791468346e-07,0.0,0.0,0.0,1.2184696791468346e-07,0.0,0.0,0.0,1.2184696791468346e-07,-0.33381444215774536,-0.10489860177039981,9.784601211547852,8.999999999999999e-08,0.0,0.0,0.0,8.999999999999999e-08,0.0,0.0,0.0,8.999999999999999e-08
1719006571.9525154,27844,1719006571,946263296,base_link,0.01777318772269742,-0.0028992237571476166,-0.8747612125914864,-0.4842194948639611,1.0,0.0,0.0,0.0,1.0,0.0,0.0,0.0,1.0,0.0003316059010103345,-0.0004202104755677283,0.0001431096461601556,1.2184696791468346e-07,0.0,0.0,0.0,1.2184696791468346e-07,0.0,0.0,0.0,1.2184696791468346e-07,-0.31977173686027527,-0.12726111710071444,9.783370971679688,8.999999999999999e-08,0.0,0.0,0.0,8.999999999999999e-08,0.0,0.0,0.0,8.999999999999999e-08
1719006571.960588,27845,1719006571,951263296,base_link,0.017770842645704492,-0.0029020429861862907,-0.8747606857558801,-0.48422052746174965,1.0,0.0,0.0,0.0,1.0,0.0,0.0,0.0,1.0,0.0006390671478584409,-0.0002447292790748179,-5.337881157174704e-05,1.2184696791468346e-07,0.0,0.0,0.0,1.2184696791468346e-07,0.0,0.0,0.0,1.2184696791468346e-07,-0.32919129729270935,-0.12206399440765262,9.78810977935791,8.999999999999999e-08,0.0,0.0,0.0,8.999999999999999e-08,0.0,0.0,0.0,8.999999999999999e-08
1719006571.9638224,27846,1719006571,956267136,base_link,0.017770300663574424,-0.002902013351683431,-0.874761170444638,-0.48421970559820365,1.0,0.0,0.0,0.0,1.0,0.0,0.0,0.0,1.0,0.00035618850961327553,-0.00020651577506214383,-0.00020339799812063572,1.2184696791468346e-07,0.0,0.0,0.0,1.2184696791468346e-07,0.0,0.0,0.0,1.2184696791468346e-07,-0.3292853534221649,-0.12727516889572024,9.788847923278809,8.999999999999999e-08,0.0,0.0,0.0,8.999999999999999e-08,0.0,0.0,0.0,8.999999999999999e-08
1719006571.968916,27847,1719006571,961267136,base_link,0.01777031449300909,-0.0029023604046391374,-0.874760601462183,-0.48422069604914375,1.0,0.0,0.0,0.0,1.0,0.0,0.0,0.0,1.0,0.00023436732590198517,-0.00013644815771840515,-0.0001735288242343813,1.2184696791468346e-07,0.0,0.0,0.0,1.2184696791468346e-07,0.0,0.0,0.0,1.2184696791468346e-07,-0.3314744532108307,-0.12051820755004763,9.787928581237793,8.999999999999999e-08,0.0,0.0,0.0,8.999999999999999e-08,0.0,0.0,0.0,8.999999999999999e-08
1719006571.974659,27848,1719006571,971267136,base_link,0.017768716205488217,-0.0029006712379761627,-0.8747610650775167,-0.4842200638464161,1.0,0.0,0.0,0.0,1.0,0.0,0.0,0.0,1.0,-0.00011864391854032874,-0.0002665992360562086,0.00017695402493700388,1.2184696791468346e-07,0.0,0.0,0.0,1.2184696791468346e-07,0.0,0.0,0.0,1.2184696791468346e-07,-0.33651214838027954,-0.1150658279657352,9.796431541442871,8.999999999999999e-08,0.0,0.0,0.0,8.999999999999999e-08,0.0,0.0,0.0,8.999999999999999e-08
1719006571.9800496,27849,1719006571,976267136,base_link,0.017771014525821076,-0.0029031012672106186,-0.8747613179586078,-0.4842194737905369,1.0,0.0,0.0,0.0,1.0,0.0,0.0,0.0,1.0,-8.289504330605268e-05,0.00033802472171373665,6.8927532993257e-05,1.2184696791468346e-07,0.0,0.0,0.0,1.2184696791468346e-07,0.0,0.0,0.0,1.2184696791468346e-07,-0.3337833881378174,-0.10915203392505525,9.809922218322754,8.999999999999999e-08,0.0,0.0,0.0,8.999999999999999e-08,0.0,0.0,0.0,8.999999999999999e-08
1719006571.9858243,27850,1719006571,981267136,base_link,0.017772209784103064,-0.002903917203856009,-0.8747612336649108,-0.48421955808423395,1.0,0.0,0.0,0.0,1.0,0.0,0.0,0.0,1.0,7.306638872250915e-05,0.000657315889839083,0.00022787571651861063,1.2184696791468346e-07,0.0,0.0,0.0,1.2184696791468346e-07,0.0,0.0,0.0,1.2184696791468346e-07,-0.3308072090148926,-0.10771744698285936,9.802824020385742,8.999999999999999e-08,0.0,0.0,0.0,8.999999999999999e-08,0.0,0.0,0.0,8.999999999999999e-08
1719006571.9959133,27851,1719006571,986267136,base_link,0.01777112055148686,-0.0029040291564223658,-0.8747628563185784,-0.48421658673141393,1.0,0.0,0.0,0.0,1.0,0.0,0.0,0.0,1.0,0.00033162953332066536,-1.707975025055926e-05,0.00033491640351712704,1.2184696791468346e-07,0.0,0.0,0.0,1.2184696791468346e-07,0.0,0.0,0.0,1.2184696791468346e-07,-0.3301232159137726,-0.1256188601255405,9.798002243041992,8.999999999999999e-08,0.0,0.0,0.0,8.999999999999999e-08,0.0,0.0,0.0,8.999999999999999e-08
1719006571.9982638,27852,1719006571,991267136,base_link,0.017770179491384954,-0.0029035319553188384,-0.8747616551333959,-0.48421879944096075,1.0,0.0,0.0,0.0,1.0,0.0,0.0,0.0,1.0,-7.857597665861249e-05,-0.0002520462148822844,1.4880788512527973e-05,1.2184696791468346e-07,0.0,0.0,0.0,1.2184696791468346e-07,0.0,0.0,0.0,1.2184696791468346e-07,-0.33765119314193726,-0.11962690949439882,9.817281723022461,8.999999999999999e-08,0.0,0.0,0.0,8.999999999999999e-08,0.0,0.0,0.0,8.999999999999999e-08
1719006572.004458,27853,1719006572,1267136,base_link,0.017770711595347405,-0.002900647530373875,-0.8747639942834882,-0.48421477441692795,1.0,0.0,0.0,0.0,1.0,0.0,0.0,0.0,1.0,-0.0004503454838413745,-0.0002211899554822593,0.0005932492786087096,1.2184696791468346e-07,0.0,0.0,0.0,1.2184696791468346e-07,0.0,0.0,0.0,1.2184696791468346e-07,-0.3247066140174866,-0.113791838288306,9.790868759155273,8.999999999999999e-08,0.0,0.0,0.0,8.999999999999999e-08,0.0,0.0,0.0,8.999999999999999e-08
1719006572.010238,27854,1719006572,6267136,base_link,0.017770936817569135,-0.0029002668916482607,-0.8747627298780328,-0.48421679746565643,1.0,0.0,0.0,0.0,1.0,0.0,0.0,0.0,1.0,-0.0004092005256097764,-6.943646440049632e-05,8.993200026452543e-05,1.2184696791468346e-07,0.0,0.0,0.0,1.2184696791468346e-07,0.0,0.0,0.0,1.2184696791468346e-07,-0.32464268803596497,-0.11274347454309343,9.810844421386719,8.999999999999999e-08,0.0,0.0,0.0,8.999999999999999e-08,0.0,0.0,0.0,8.999999999999999e-08
1719006572.0163195,27855,1719006572,11267136,base_link,0.017769696119716096,-0.002901341636285288,-0.8747632988604878,-0.48421605989580746,1.0,0.0,0.0,0.0,1.0,0.0,0.0,0.0,1.0,-0.00013605819549411535,-0.00016650816542096436,-0.0001023555523715913,1.2184696791468346e-07,0.0,0.0,0.0,1.2184696791468346e-07,0.0,0.0,0.0,1.2184696791468346e-07,-0.3385789394378662,-0.1184656322002399,9.790703773498535,8.999999999999999e-08,0.0,0.0,0.0,8.999999999999999e-08,0.0,0.0,0.0,8.999999999999999e-08
1719006572.0204523,27856,1719006572,16267136,base_link,0.017770389567083,-0.0028977901057537377,-0.8747625191437902,-0.4842173453746871,1.0,0.0,0.0,0.0,1.0,0.0,0.0,0.0,1.0,-0.00034210033481940627,-0.00027155579300597315,-0.00023626626352779565,1.2184696791468346e-07,0.0,0.0,0.0,1.2184696791468346e-07,0.0,0.0,0.0,1.2184696791468346e-07,-0.3342228829860687,-0.115512430667876,9.800395011901855,8.999999999999999e-08,0.0,0.0,0.0,8.999999999999999e-08,0.0,0.0,0.0,8.999999999999999e-08
1719006572.0267644,27857,1719006572,21267136,base_link,0.017770609520948666,-0.002899112463125767,-0.8747614865460017,-0.4842192209094458,1.0,0.0,0.0,0.0,1.0,0.0,0.0,0.0,1.0,-0.00032004975946620107,-2.267452509840957e-05,-0.00054902583360672,1.2184696791468346e-07,0.0,0.0,0.0,1.2184696791468346e-07,0.0,0.0,0.0,1.2184696791468346e-07,-0.32302772998809814,-0.11932086944579957,9.807307243347168,8.999999999999999e-08,0.0,0.0,0.0,8.999999999999999e-08,0.0,0.0,0.0,8.999999999999999e-08
1719006572.0352602,27858,1719006572,26267136,base_link,0.017772251930951576,-0.0028967100927606458,-0.8747613179586078,-0.4842194737905369,1.0,0.0,0.0,0.0,1.0,0.0,0.0,0.0,1.0,-0.0005215287674218416,4.630095645552495e-05,-0.0004894159501418471,1.2184696791468346e-07,0.0,0.0,0.0,1.2184696791468346e-07,0.0,0.0,0.0,1.2184696791468346e-07,-0.31650057435035706,-0.12150821089744449,9.798283576965332,8.999999999999999e-08,0.0,0.0,0.0,8.999999999999999e-08,0.0,0.0,0.0,8.999999999999999e-08
1719006572.0382457,27859,1719006572,31267136,base_link,0.017770460031345355,-0.0028964420651458973,-0.8747617815739414,-0.4842186730004152,1.0,0.0,0.0,0.0,1.0,0.0,0.0,0.0,1.0,-0.0002718881005421281,-0.00032221878063865006,0.00015262718079611662,1.2184696791468346e-07,0.0,0.0,0.0,1.2184696791468346e-07,0.0,0.0,0.0,1.2184696791468346e-07,-0.3458578288555145,-0.11458496749400972,9.810247421264648,8.999999999999999e-08,0.0,0.0,0.0,8.999999999999999e-08,0.0,0.0,0.0,8.999999999999999e-08
1719006572.0444925,27860,1719006572,36267136,base_link,0.017770872280207354,-0.002895206635648921,-0.8747619712347596,-0.48421839904589986,1.0,0.0,0.0,0.0,1.0,0.0,0.0,0.0,1.0,-0.00021536252461373806,-0.0002736533642746508,0.00021272688172757628,1.2184696791468346e-07,0.0,0.0,0.0,1.2184696791468346e-07,0.0,0.0,0.0,1.2184696791468346e-07,-0.3398297429084778,-0.11155889928340791,9.814859390258789,8.999999999999999e-08,0.0,0.0,0.0,8.999999999999999e-08,0.0,0.0,0.0,8.999999999999999e-08
1719006572.0499074,27861,1719006572,46267136,base_link,0.017770604911137113,-0.002894731166514158,-0.8747626245109116,-0.4842172400075658,1.0,0.0,0.0,0.0,1.0,0.0,0.0,0.0,1.0,-0.0001331924577243626,-9.500586747890336e-05,0.00017901486717164516,1.2184696791468346e-07,0.0,0.0,0.0,1.2184696791468346e-07,0.0,0.0,0.0,1.2184696791468346e-07,-0.32760077714920044,-0.10486765205860019,9.782910346984863,8.999999999999999e-08,0.0,0.0,0.0,8.999999999999999e-08,0.0,0.0,0.0,8.999999999999999e-08
1719006572.0564563,27862,1719006572,51267136,base_link,0.017768870304903085,-0.0028946363361050075,-0.8747624980703661,-0.4842174507418084,1.0,0.0,0.0,0.0,1.0,0.0,0.0,0.0,1.0,-6.405770545825362e-05,-0.0003070578968618065,7.791031384840612e-05,1.2184696791468346e-07,0.0,0.0,0.0,1.2184696791468346e-07,0.0,0.0,0.0,1.2184696791468346e-07,-0.34257981181144714,-0.1268938183784473,9.78633975982666,8.999999999999999e-08,0.0,0.0,0.0,8.999999999999999e-08,0.0,0.0,0.0,8.999999999999999e-08
1719006572.06229,27863,1719006572,56266880,base_link,0.017766147223362578,-0.0028973712714466604,-0.8747622873361235,-0.48421791435714195,1.0,0.0,0.0,0.0,1.0,0.0,0.0,0.0,1.0,0.0006135168951004744,-0.0004692285438068211,-5.700066685676569e-05,1.2184696791468346e-07,0.0,0.0,0.0,1.2184696791468346e-07,0.0,0.0,0.0,1.2184696791468346e-07,-0.3378252387046814,-0.10214835405349612,9.775883674621582,8.999999999999999e-08,0.0,0.0,0.0,8.999999999999999e-08,0.0,0.0,0.0,8.999999999999999e-08
1719006572.07,27864,1719006572,61266880,base_link,0.017766891378656596,-0.0028972119036757295,-0.8747624348500932,-0.48421759825577815,1.0,0.0,0.0,0.0,1.0,0.0,0.0,0.0,1.0,0.0003080987371504307,-6.103952910052611e-05,9.966461220756174e-05,1.2184696791468346e-07,0.0,0.0,0.0,1.2184696791468346e-07,0.0,0.0,0.0,1.2184696791468346e-07,-0.32767027616500854,-0.11529706418514132,9.789748191833496,8.999999999999999e-08,0.0,0.0,0.0,8.999999999999999e-08,0.0,0.0,0.0,8.999999999999999e-08
1719006572.0736566,27865,1719006572,66266880,base_link,0.01776744521458781,-0.002896755532331696,-0.8747620555284567,-0.48421831475220284,1.0,0.0,0.0,0.0,1.0,0.0,0.0,0.0,1.0,0.0001401492627337575,4.9262096581514925e-05,-2.1524669136852033e-05,1.2184696791468346e-07,0.0,0.0,0.0,1.2184696791468346e-07,0.0,0.0,0.0,1.2184696791468346e-07,-0.32767027616500854,-0.11529706418514132,9.789748191833496,8.999999999999999e-08,0.0,0.0,0.0,8.999999999999999e-08,0.0,0.0,0.0,8.999999999999999e-08
1719006572.0764472,27866,1719006572,71266880,base_link,0.01776483671979169,-0.0028971526346700106,-0.8747610018572439,-0.48422029565408287,1.0,0.0,0.0,0.0,1.0,0.0,0.0,0.0,1.0,0.0004032721044495702,-9.826233872445307e-05,-0.0005220593302510679,1.2184696791468346e-07,0.0,0.0,0.0,1.2184696791468346e-07,0.0,0.0,0.0,1.2184696791468346e-07,-0.33833757042884827,-0.1112159937620151,9.794381141662598,8.999999999999999e-08,0.0,0.0,0.0,8.999999999999999e-08,0.0,0.0,0.0,8.999999999999999e-08
1719006572.0823433,27867,1719006572,76266880,base_link,0.017765452458906653,-0.002898774629793171,-0.8747600535531523,-0.48422200260144754,1.0,0.0,0.0,0.0,1.0,0.0,0.0,0.0,1.0,5.088147008791566e-05,-1.6839498130139028e-05,-0.0005306703387759626,1.2184696791468346e-07,0.0,0.0,0.0,1.2184696791468346e-07,0.0,0.0,0.0,1.2184696791468346e-07,-0.3210478127002716,-0.10645711421966432,9.802868843078613,8.999999999999999e-08,0.0,0.0,0.0,8.999999999999999e-08,0.0,0.0,0.0,8.999999999999999e-08
1719006572.089988,27868,1719006572,81266880,base_link,0.017765939123298054,-0.002897709763323763,-0.8747611282977894,-0.48422008491984025,1.0,0.0,0.0,0.0,1.0,0.0,0.0,0.0,1.0,5.086744204163551e-05,-0.00014393252786248922,6.041669985279443e-05,1.2184696791468346e-07,0.0,0.0,0.0,1.2184696791468346e-07,0.0,0.0,0.0,1.2184696791468346e-07,-0.32834845781326294,-0.1098155379295337,9.813015937805176,8.999999999999999e-08,0.0,0.0,0.0,8.999999999999999e-08,0.0,0.0,0.0,8.999999999999999e-08
1719006572.0941725,27869,1719006572,91266880,base_link,0.01776340372694232,-0.00290155961451743,-0.8747615286928503,-0.48421934734999134,1.0,0.0,0.0,0.0,1.0,0.0,0.0,0.0,1.0,0.0005620310548692942,3.544118953868792e-06,0.0003698039217852056,1.2184696791468346e-07,0.0,0.0,0.0,1.2184696791468346e-07,0.0,0.0,0.0,1.2184696791468346e-07,-0.3376932144165039,-0.11640395224094272,9.79029655456543,8.999999999999999e-08,0.0,0.0,0.0,8.999999999999999e-08,0.0,0.0,0.0,8.999999999999999e-08
1719006572.1005964,27870,1719006572,96266880,base_link,0.017764600302313326,-0.002902387404963965,-0.8747599060391826,-0.4842222344091144,1.0,0.0,0.0,0.0,1.0,0.0,0.0,0.0,1.0,0.0004157817456871271,0.00023443170357495544,-0.0002846747811418027,1.2184696791468346e-07,0.0,0.0,0.0,1.2184696791468346e-07,0.0,0.0,0.0,1.2184696791468346e-07,-0.328043133020401,-0.12764856219291568,9.79659652709961,8.999999999999999e-08,0.0,0.0,0.0,8.999999999999999e-08,0.0,0.0,0.0,8.999999999999999e-08
1719006572.1101701,27871,1719006572,101266880,base_link,0.01776467405929822,-0.002901969887745903,-0.8747608964901227,-0.48422040102120417,1.0,0.0,0.0,0.0,1.0,0.0,0.0,0.0,1.0,0.0001054608728736639,0.00025509632541798055,-4.1790772229433094e-05,1.2184696791468346e-07,0.0,0.0,0.0,1.2184696791468346e-07,0.0,0.0,0.0,1.2184696791468346e-07,-0.32068777084350586,-0.11871302127838015,9.785386085510254,8.999999999999999e-08,0.0,0.0,0.0,8.999999999999999e-08,0.0,0.0,0.0,8.999999999999999e-08
1719006572.1120386,27872,1719006572,106266880,base_link,0.01776404383220408,-0.002901338343562748,-0.8747613811788806,-0.4842195791576582,1.0,0.0,0.0,0.0,1.0,0.0,0.0,0.0,1.0,-0.00021919840946793556,6.01313113293145e-05,0.0001200216938741505,1.2184696791468346e-07,0.0,0.0,0.0,1.2184696791468346e-07,0.0,0.0,0.0,1.2184696791468346e-07,-0.3393608033657074,-0.11395974457263827,9.795583724975586,8.999999999999999e-08,0.0,0.0,0.0,8.999999999999999e-08,0.0,0.0,0.0,8.999999999999999e-08
1719006572.1183002,27873,1719006572,111266880,base_link,0.01776638100666291,-0.002900706799379593,-0.8747612125914865,-0.48421991633244627,1.0,0.0,0.0,0.0,1.0,0.0,0.0,0.0,1.0,-0.00042405675048939884,0.0003063190961256623,0.00016866001533344385,1.2184696791468346e-07,0.0,0.0,0.0,1.2184696791468346e-07,0.0,0.0,0.0,1.2184696791468346e-07,-0.3320982754230499,-0.12244832515716433,9.801522254943848,8.999999999999999e-08,0.0,0.0,0.0,8.999999999999999e-08,0.0,0.0,0.0,8.999999999999999e-08
1719006572.1244347,27874,1719006572,121266880,base_link,0.017767314164230722,-0.0028996406158211694,-0.8747623084095477,-0.4842177246963237,1.0,0.0,0.0,0.0,1.0,0.0,0.0,0.0,1.0,-0.0003232366289012134,0.00016710087948013102,0.00039919960545375943,1.2184696791468346e-07,0.0,0.0,0.0,1.2184696791468346e-07,0.0,0.0,0.0,1.2184696791468346e-07,-0.338535338640213,-0.12083549797534823,9.781567573547363,8.999999999999999e-08,0.0,0.0,0.0,8.999999999999999e-08,0.0,0.0,0.0,8.999999999999999e-08
1719006572.130618,27875,1719006572,126266880,base_link,0.017768504812701154,-0.002901044632712189,-0.8747617605005171,-0.48421869407383944,1.0,0.0,0.0,0.0,1.0,0.0,0.0,0.0,1.0,-0.0002577220438979566,0.00031494887662120163,6.371334893628951e-05,1.2184696791468346e-07,0.0,0.0,0.0,1.2184696791468346e-07,0.0,0.0,0.0,1.2184696791468346e-07,-0.3265402615070343,-0.12320108711719394,9.797471046447754,8.999999999999999e-08,0.0,0.0,0.0,8.999999999999999e-08,0.0,0.0,0.0,8.999999999999999e-08
1719006572.1371107,27876,1719006572,131266880,base_link,0.01776872805928936,-0.0029015708097740673,-0.8747624137766691,-0.4842175350355054,1.0,0.0,0.0,0.0,1.0,0.0,0.0,0.0,1.0,-0.00018205621745437384,0.00028552583535201853,0.00022798753343522546,1.2184696791468346e-07,0.0,0.0,0.0,1.2184696791468346e-07,0.0,0.0,0.0,1.2184696791468346e-07,-0.33215847611427307,-0.10957163572311282,9.792421340942383,8.999999999999999e-08,0.0,0.0,0.0,8.999999999999999e-08,0.0,0.0,0.0,8.999999999999999e-08
1719006572.1408865,27877,1719006572,136266880,base_link,0.017769987196388625,-0.0028993778565624836,-0.8747631513465179,-0.4842162074097773,1.0,0.0,0.0,0.0,1.0,0.0,0.0,0.0,1.0,-0.00036745151737704873,0.0002596213016659022,0.0003188173868693411,1.2184696791468346e-07,0.0,0.0,0.0,1.2184696791468346e-07,0.0,0.0,0.0,1.2184696791468346e-07,-0.334295392036438,-0.11567799746990083,9.812798500061035,8.999999999999999e-08,0.0,0.0,0.0,8.999999999999999e-08,0.0,0.0,0.0,8.999999999999999e-08
1719006572.1494226,27878,1719006572,141266880,base_link,0.017769712583328795,-0.002900051547594151,-0.8747632988604878,-0.4842159756021105,1.0,0.0,0.0,0.0,1.0,0.0,0.0,0.0,1.0,-0.00020448979921638966,0.00010444819054100667,0.00029708456713706255,1.2184696791468346e-07,0.0,0.0,0.0,1.2184696791468346e-07,0.0,0.0,0.0,1.2184696791468346e-07,-0.3380916118621826,-0.10152816772460817,9.803839683532715,8.999999999999999e-08,0.0,0.0,0.0,8.999999999999999e-08,0.0,0.0,0.0,8.999999999999999e-08
1719006572.152003,27879,1719006572,146266880,base_link,0.01776951436143189,-0.0028994674186155703,-0.874764394678549,-0.48421403684707903,1.0,0.0,0.0,0.0,1.0,0.0,0.0,0.0,1.0,-0.0002016084035858512,-2.5143897801171914e-05,0.0006074110860936344,1.2184696791468346e-07,0.0,0.0,0.0,1.2184696791468346e-07,0.0,0.0,0.0,1.2184696791468346e-07,-0.32336533069610596,-0.12269632518291353,9.80650520324707,8.999999999999999e-08,0.0,0.0,0.0,8.999999999999999e-08,0.0,0.0,0.0,8.999999999999999e-08
1719006572.1580455,27880,1719006572,151266880,base_link,0.01777041854304135,-0.0028981839153695106,-0.8747648793673068,-0.4842129621024419,1.0,0.0,0.0,0.0,1.0,0.0,0.0,0.0,1.0,-0.000645751366391778,-0.0003524851927068084,0.0005796159966848791,1.2184696791468346e-07,0.0,0.0,0.0,1.2184696791468346e-07,0.0,0.0,0.0,1.2184696791468346e-07,-0.3338158130645752,-0.10708143562078357,9.797758102416992,8.999999999999999e-08,0.0,0.0,0.0,8.999999999999999e-08,0.0,0.0,0.0,8.999999999999999e-08
1719006572.1647177,27881,1719006572,156269184,base_link,0.017768840670400226,-0.0028951401226536143,-0.8747650058078524,-0.4842128356618964,1.0,0.0,0.0,0.0,1.0,0.0,0.0,0.0,1.0,-0.0004335575213190168,-0.0005910054314881563,0.0001943386741913856,1.2184696791468346e-07,0.0,0.0,0.0,1.2184696791468346e-07,0.0,0.0,0.0,1.2184696791468346e-07,-0.33431899547576904,-0.10373006016015887,9.798121452331543,8.999999999999999e-08,0.0,0.0,0.0,8.999999999999999e-08,0.0,0.0,0.0,8.999999999999999e-08
1719006572.1678476,27882,1719006572,161269184,base_link,0.017767963489115593,-0.002894432845852041,-0.8747651743952465,-0.48421258278080537,1.0,0.0,0.0,0.0,1.0,0.0,0.0,0.0,1.0,-0.000265567097812891,-0.0006735526258125901,0.000247662770561874,1.2184696791468346e-07,0.0,0.0,0.0,1.2184696791468346e-07,0.0,0.0,0.0,1.2184696791468346e-07,-0.33431899547576904,-0.10373006016015887,9.798121452331543,8.999999999999999e-08,0.0,0.0,0.0,8.999999999999999e-08,0.0,0.0,0.0,8.999999999999999e-08
1719006572.1734092,27883,1719006572,166269184,base_link,0.01776565002225905,-0.0028948286311013395,-0.8747661648461864,-0.48421100227398617,1.0,0.0,0.0,0.0,1.0,0.0,0.0,0.0,1.0,8.48742201924324e-05,-0.0006668873829767108,0.00036431138869375,1.2184696791468346e-07,0.0,0.0,0.0,1.2184696791468346e-07,0.0,0.0,0.0,1.2184696791468346e-07,-0.31028246879577637,-0.11564768850803256,9.796343803405762,8.999999999999999e-08,0.0,0.0,0.0,8.999999999999999e-08,0.0,0.0,0.0,8.999999999999999e-08
1719006572.1790328,27884,1719006572,176269184,base_link,0.017763310213622187,-0.002893088097966741,-0.8747671342237022,-0.48420935854689423,1.0,0.0,0.0,0.0,1.0,0.0,0.0,0.0,1.0,-4.786381032317877e-05,-0.0005461968830786644,0.0005041987751610578,1.2184696791468346e-07,0.0,0.0,0.0,1.2184696791468346e-07,0.0,0.0,0.0,1.2184696791468346e-07,-0.33797115087509155,-0.12757839262485385,9.799363136291504,8.999999999999999e-08,0.0,0.0,0.0,8.999999999999999e-08,0.0,0.0,0.0,8.999999999999999e-08
1719006572.187814,27885,1719006572,181269184,base_link,0.017760542351055137,-0.002892773972236433,-0.8747668391957626,-0.4842099907496219,1.0,0.0,0.0,0.0,1.0,0.0,0.0,0.0,1.0,0.00013441918417811394,-0.0007340051233768463,3.8150930777192204e-05,1.2184696791468346e-07,0.0,0.0,0.0,1.2184696791468346e-07,0.0,0.0,0.0,1.2184696791468346e-07,-0.3357069194316864,-0.1094089299440372,9.793696403503418,8.999999999999999e-08,0.0,0.0,0.0,8.999999999999999e-08,0.0,0.0,0.0,8.999999999999999e-08
1719006572.1921372,27886,1719006572,186269184,base_link,0.017761499874769743,-0.002893756520642343,-0.8747676821327328,-0.4842084734630755,1.0,0.0,0.0,0.0,1.0,0.0,0.0,0.0,1.0,0.00014714093413203955,-0.00034719950053840876,0.00018325727432966238,1.2184696791468346e-07,0.0,0.0,0.0,1.2184696791468346e-07,0.0,0.0,0.0,1.2184696791468346e-07,-0.3347882628440857,-0.12164531648158908,9.799727439880371,8.999999999999999e-08,0.0,0.0,0.0,8.999999999999999e-08,0.0,0.0,0.0,8.999999999999999e-08
1719006572.1981227,27887,1719006572,191269184,base_link,0.0177619088309092,-0.0028917433500814404,-0.8747679560872482,-0.48420777804007514,1.0,0.0,0.0,0.0,1.0,0.0,0.0,0.0,1.0,-0.0003585784579627216,-7.469520642189304e-05,0.00046501733595505357,1.2184696791468346e-07,0.0,0.0,0.0,1.2184696791468346e-07,0.0,0.0,0.0,1.2184696791468346e-07,-0.3256962299346924,-0.1123468056321132,9.805091857910156,8.999999999999999e-08,0.0,0.0,0.0,8.999999999999999e-08,0.0,0.0,0.0,8.999999999999999e-08
1719006572.2044537,27888,1719006572,196269184,base_link,0.017761988514794665,-0.0028901924777651414,-0.8747683354088848,-0.4842071458373474,1.0,0.0,0.0,0.0,1.0,0.0,0.0,0.0,1.0,-0.0004761602031067014,-0.0002986372273880988,0.0002385139232501388,1.2184696791468346e-07,0.0,0.0,0.0,1.2184696791468346e-07,0.0,0.0,0.0,1.2184696791468346e-07,-0.32522711157798767,-0.12471731007099032,9.789031982421875,8.999999999999999e-08,0.0,0.0,0.0,8.999999999999999e-08,0.0,0.0,0.0,8.999999999999999e-08
1719006572.2103586,27889,1719006572,206269184,base_link,0.01775691047809361,-0.0028878895476207246,-0.8747674503250661,-0.4842091267392275,1.0,0.0,0.0,0.0,1.0,0.0,0.0,0.0,1.0,-0.0001926599652506411,-0.0008292270358651876,-0.00028893069247715164,1.2184696791468346e-07,0.0,0.0,0.0,1.2184696791468346e-07,0.0,0.0,0.0,1.2184696791468346e-07,-0.33372172713279724,-0.12522073090076327,9.800578117370605,8.999999999999999e-08,0.0,0.0,0.0,8.999999999999999e-08,0.0,0.0,0.0,8.999999999999999e-08
1719006572.2163486,27890,1719006572,211269184,base_link,0.017755968759447197,-0.002887429883554154,-0.874767113150278,-0.48420954820771256,1.0,0.0,0.0,0.0,1.0,0.0,0.0,0.0,1.0,3.1194358598440886e-05,-0.0008750082342885436,-0.0004451444838196038,1.2184696791468346e-07,0.0,0.0,0.0,1.2184696791468346e-07,0.0,0.0,0.0,1.2184696791468346e-07,-0.31673353910446167,-0.11974240839481234,9.795598983764648,8.999999999999999e-08,0.0,0.0,0.0,8.999999999999999e-08,0.0,0.0,0.0,8.999999999999999e-08
1719006572.2257478,27891,1719006572,216269184,base_link,0.017754759671730538,-0.0028880317932344505,-0.8747658698182469,-0.4842119716515019,1.0,0.0,0.0,0.0,1.0,0.0,0.0,0.0,1.0,0.00034937704913318157,-0.0004303386667743326,-0.0005989797646179795,1.2184696791468346e-07,0.0,0.0,0.0,1.2184696791468346e-07,0.0,0.0,0.0,1.2184696791468346e-07,-0.3390676975250244,-0.12437081336974978,9.777506828308105,8.999999999999999e-08,0.0,0.0,0.0,8.999999999999999e-08,0.0,0.0,0.0,8.999999999999999e-08
1719006572.2289393,27892,1719006572,221269184,base_link,0.017754454765623342,-0.002888918852686702,-0.8747660173322167,-0.48421165555013806,1.0,0.0,0.0,0.0,1.0,0.0,0.0,0.0,1.0,0.00022357015404850245,9.343466081190852e-05,-0.00023071200121194124,1.2184696791468346e-07,0.0,0.0,0.0,1.2184696791468346e-07,0.0,0.0,0.0,1.2184696791468346e-07,-0.3240053355693817,-0.1264287531375873,9.811522483825684,8.999999999999999e-08,0.0,0.0,0.0,8.999999999999999e-08,0.0,0.0,0.0,8.999999999999999e-08
1719006572.2305582,27893,1719006572,226269184,base_link,0.017754884795187057,-0.0028881042331303274,-0.8747665441678231,-0.48421070724604665,1.0,0.0,0.0,0.0,1.0,0.0,0.0,0.0,1.0,0.00015967502258718014,5.936471279710532e-05,3.254978219047188e-05,1.2184696791468346e-07,0.0,0.0,0.0,1.2184696791468346e-07,0.0,0.0,0.0,1.2184696791468346e-07,-0.3240053355693817,-0.1264287531375873,9.811522483825684,8.999999999999999e-08,0.0,0.0,0.0,8.999999999999999e-08,0.0,0.0,0.0,8.999999999999999e-08
1719006572.236231,27894,1719006572,231269184,base_link,0.017755535437160942,-0.002889090732803286,-0.8747667549020657,-0.48421032792441004,1.0,0.0,0.0,0.0,1.0,0.0,0.0,0.0,1.0,-2.9717397410422564e-05,0.0002363284875173122,0.00026025081751868123,1.2184696791468346e-07,0.0,0.0,0.0,1.2184696791468346e-07,0.0,0.0,0.0,1.2184696791468346e-07,-0.3323952853679657,-0.12196427583694339,9.785416603088379,8.999999999999999e-08,0.0,0.0,0.0,8.999999999999999e-08,0.0,0.0,0.0,8.999999999999999e-08
1719006572.242546,27895,1719006572,236269184,base_link,0.0177557461714035,-0.0028895701532050968,-0.8747674081782175,-0.484209168886076,1.0,0.0,0.0,0.0,1.0,0.0,0.0,0.0,1.0,6.481067975983024e-05,8.873366459738466e-05,0.00016687053721398115,1.2184696791468346e-07,0.0,0.0,0.0,1.2184696791468346e-07,0.0,0.0,0.0,1.2184696791468346e-07,-0.31306108832359314,-0.13536936044692874,9.810611724853516,8.999999999999999e-08,0.0,0.0,0.0,8.999999999999999e-08,0.0,0.0,0.0,8.999999999999999e-08
1719006572.249378,27896,1719006572,241269184,base_link,0.017754202543076785,-0.0028897953754268278,-0.8747668391957626,-0.48421015933701594,1.0,0.0,0.0,0.0,1.0,0.0,0.0,0.0,1.0,-9.807583410292864e-05,-0.0003191203868482262,3.286963328719143e-05,1.2184696791468346e-07,0.0,0.0,0.0,1.2184696791468346e-07,0.0,0.0,0.0,1.2184696791468346e-07,-0.32248130440711975,-0.11534355580806613,9.801209449768066,8.999999999999999e-08,0.0,0.0,0.0,8.999999999999999e-08,0.0,0.0,0.0,8.999999999999999e-08
1719006572.2544005,27897,1719006572,251269184,base_link,0.01775302967530807,-0.002885531299737639,-0.874766206993035,-0.4842113815956228,1.0,0.0,0.0,0.0,1.0,0.0,0.0,0.0,1.0,-0.0003715410712175071,-0.00059568538563326,-0.0002790206053759902,1.2184696791468346e-07,0.0,0.0,0.0,1.2184696791468346e-07,0.0,0.0,0.0,1.2184696791468346e-07,-0.32292640209198,-0.11789494752883792,9.787030220031738,8.999999999999999e-08,0.0,0.0,0.0,8.999999999999999e-08,0.0,0.0,0.0,8.999999999999999e-08
1719006572.2638738,27898,1719006572,256269952,base_link,0.01775335631338403,-0.0028860765745902487,-0.8747657012308528,-0.48421230882629,1.0,0.0,0.0,0.0,1.0,0.0,0.0,0.0,1.0,-0.00024758867220953107,-0.00021124049089849,-0.00040332466596737504,1.2184696791468346e-07,0.0,0.0,0.0,1.2184696791468346e-07,0.0,0.0,0.0,1.2184696791468346e-07,-0.3332010805606842,-0.11186762154102205,9.804484367370605,8.999999999999999e-08,0.0,0.0,0.0,8.999999999999999e-08,0.0,0.0,0.0,8.999999999999999e-08
1719006572.266654,27899,1719006572,261269952,base_link,0.017752442912151455,-0.0028875102259841266,-0.8747660594790652,-0.48421161340328955,1.0,0.0,0.0,0.0,1.0,0.0,0.0,0.0,1.0,0.00011935702059417963,-5.653844709740954e-05,-0.00018151305266655982,1.2184696791468346e-07,0.0,0.0,0.0,1.2184696791468346e-07,0.0,0.0,0.0,1.2184696791468346e-07,-0.35150209069252014,-0.1112143024802196,9.799970626831055,8.999999999999999e-08,0.0,0.0,0.0,8.999999999999999e-08,0.0,0.0,0.0,8.999999999999999e-08
1719006572.273113,27900,1719006572,266269952,base_link,0.017751558486877237,-0.002885119050875641,-0.8747659541119439,-0.48421205594519895,1.0,0.0,0.0,0.0,1.0,0.0,0.0,0.0,1.0,-0.000243948248680681,-0.0003984043723903597,-0.0002632163523230701,1.2184696791468346e-07,0.0,0.0,0.0,1.2184696791468346e-07,0.0,0.0,0.0,1.2184696791468346e-07,-0.3448644280433655,-0.11972308158874391,9.807822227478027,8.999999999999999e-08,0.0,0.0,0.0,8.999999999999999e-08,0.0,0.0,0.0,8.999999999999999e-08
1719006572.278411,27901,1719006572,271269952,base_link,0.017751373435870493,-0.00288279241312894,-0.8747649847344282,-0.4842136153785939,1.0,0.0,0.0,0.0,1.0,0.0,0.0,0.0,1.0,-0.0005868459120392799,-0.000749153783544898,-0.0004202923737466334,1.2184696791468346e-07,0.0,0.0,0.0,1.2184696791468346e-07,0.0,0.0,0.0,1.2184696791468346e-07,-0.3384626805782318,-0.12124118208885072,9.806839942932129,8.999999999999999e-08,0.0,0.0,0.0,8.999999999999999e-08,0.0,0.0,0.0,8.999999999999999e-08
1719006572.284595,27902,1719006572,281269952,base_link,0.017749652659071132,-0.0028807476324316534,-0.8747635095947304,-0.4842164392174441,1.0,0.0,0.0,0.0,1.0,0.0,0.0,0.0,1.0,-0.0003589899861253798,-0.0004885633243247868,-0.0005638032453134655,1.2184696791468346e-07,0.0,0.0,0.0,1.2184696791468346e-07,0.0,0.0,0.0,1.2184696791468346e-07,-0.3529069125652313,-0.116568937897681,9.791661262512207,8.999999999999999e-08,0.0,0.0,0.0,8.999999999999999e-08,0.0,0.0,0.0,8.999999999999999e-08
1719006572.2903452,27903,1719006572,286269952,base_link,0.01774941229032572,-0.002877297517754331,-0.8747640785771852,-0.48421528017911003,1.0,0.0,0.0,0.0,1.0,0.0,0.0,0.0,1.0,-0.0005642317119054496,-0.0005417808424681425,-0.00025275989901274437,1.2184696791468346e-07,0.0,0.0,0.0,1.2184696791468346e-07,0.0,0.0,0.0,1.2184696791468346e-07,-0.30871668457984924,-0.11564238369464754,9.804656028747559,8.999999999999999e-08,0.0,0.0,0.0,8.999999999999999e-08,0.0,0.0,0.0,8.999999999999999e-08
1719006572.2996447,27904,1719006572,291269952,base_link,0.01774953873087125,-0.0028764348244488735,-0.8747640364303367,-0.4842154066196556,1.0,0.0,0.0,0.0,1.0,0.0,0.0,0.0,1.0,-0.0005952169885858893,-0.00031613034661859274,-5.562289152294393e-05,1.2184696791468346e-07,0.0,0.0,0.0,1.2184696791468346e-07,0.0,0.0,0.0,1.2184696791468346e-07,-0.3363754153251648,-0.10416921228170274,9.81596851348877,8.999999999999999e-08,0.0,0.0,0.0,8.999999999999999e-08,0.0,0.0,0.0,8.999999999999999e-08
