Time,header.seq,header.stamp.secs,header.stamp.nsecs,header.frame_id,orientation.x,orientation.y,orientation.z,orientation.w,orientation_covariance_0,orientation_covariance_1,orientation_covariance_2,orientation_covariance_3,orientation_covariance_4,orientation_covariance_5,orientation_covariance_6,orientation_covariance_7,orientation_covariance_8,angular_velocity.x,angular_velocity.y,angular_velocity.z,angular_velocity_covariance_0,angular_velocity_covariance_1,angular_velocity_covariance_2,angular_velocity_covariance_3,angular_velocity_covariance_4,angular_velocity_covariance_5,angular_velocity_covariance_6,angular_velocity_covariance_7,angular_velocity_covariance_8,linear_acceleration.x,linear_acceleration.y,linear_acceleration.z,linear_acceleration_covariance_0,linear_acceleration_covariance_1,linear_acceleration_covariance_2,linear_acceleration_covariance_3,linear_acceleration_covariance_4,linear_acceleration_covariance_5,linear_acceleration_covariance_6,linear_acceleration_covariance_7,linear_acceleration_covariance_8
1719006860.9275334,77374,1719006860,917740160,base_link,0.023897924284363013,-0.027998886401457732,-0.8549514983683658,-0.5174001281897689,1.0,0.0,0.0,0.0,1.0,0.0,0.0,0.0,1.0,0.0002233854029327631,3.560432742233391e-05,0.00021627475507557392,1.2184696791468346e-07,0.0,0.0,0.0,1.2184696791468346e-07,0.0,0.0,0.0,1.2184696791468346e-07,-0.7043732404708862,0.2357877790927899,9.766788482666016,8.999999999999999e-08,0.0,0.0,0.0,8.999999999999999e-08,0.0,0.0,0.0,8.999999999999999e-08
1719006860.930743,77375,1719006860,927740160,base_link,0.023897340484656686,-0.027999164636512353,-0.8549520673508207,-0.5173992220325259,1.0,0.0,0.0,0.0,1.0,0.0,0.0,0.0,1.0,1.453963341191411e-05,-5.0114605983253555e-05,0.00012427405454218388,1.2184696791468346e-07,0.0,0.0,0.0,1.2184696791468346e-07,0.0,0.0,0.0,1.2184696791468346e-07,-0.6987183094024658,0.22922351956367612,9.790075302124023,8.999999999999999e-08,0.0,0.0,0.0,8.999999999999999e-08,0.0,0.0,0.0,8.999999999999999e-08
1719006860.937343,77376,1719006860,932740160,base_link,0.023897710751306298,-0.027998430853294336,-0.8549519093001389,-0.5173995486706019,1.0,0.0,0.0,0.0,1.0,0.0,0.0,0.0,1.0,-8.466490544378757e-05,-8.821790834190325e-05,-0.00010367485811002551,1.2184696791468346e-07,0.0,0.0,0.0,1.2184696791468346e-07,0.0,0.0,0.0,1.2184696791468346e-07,-0.6842044591903687,0.21981550753116727,9.770580291748047,8.999999999999999e-08,0.0,0.0,0.0,8.999999999999999e-08,0.0,0.0,0.0,8.999999999999999e-08
1719006860.943155,77377,1719006860,937740160,base_link,0.023896691653680194,-0.027999197069829375,-0.854950855628926,-0.5174012766913908,1.0,0.0,0.0,0.0,1.0,0.0,0.0,0.0,1.0,0.0002476198133081198,-6.520718307001519e-05,-0.00020745416986756027,1.2184696791468346e-07,0.0,0.0,0.0,1.2184696791468346e-07,0.0,0.0,0.0,1.2184696791468346e-07,-0.691792368888855,0.22597672045230985,9.77564811706543,8.999999999999999e-08,0.0,0.0,0.0,8.999999999999999e-08,0.0,0.0,0.0,8.999999999999999e-08
1719006860.9490001,77378,1719006860,942740160,base_link,0.023897126293055463,-0.027999067995105806,-0.8549520989609571,-0.5173991904223895,1.0,0.0,0.0,0.0,1.0,0.0,0.0,0.0,1.0,0.00010569131700322032,0.00012201775825815278,0.0001902768854051828,1.2184696791468346e-07,0.0,0.0,0.0,1.2184696791468346e-07,0.0,0.0,0.0,1.2184696791468346e-07,-0.6825360059738159,0.2354152351617825,9.790953636169434,8.999999999999999e-08,0.0,0.0,0.0,8.999999999999999e-08,0.0,0.0,0.0,8.999999999999999e-08
1719006860.9531174,77379,1719006860,947740160,base_link,0.023898045621188607,-0.027998775601344266,-0.8549516669557599,-0.5173999596023748,1.0,0.0,0.0,0.0,1.0,0.0,0.0,0.0,1.0,5.365582183003426e-06,0.00021430000197142363,6.125058280304072e-05,1.2184696791468346e-07,0.0,0.0,0.0,1.2184696791468346e-07,0.0,0.0,0.0,1.2184696791468346e-07,-0.6689265370368958,0.2260357141494763,9.786713600158691,8.999999999999999e-08,0.0,0.0,0.0,8.999999999999999e-08,0.0,0.0,0.0,8.999999999999999e-08
1719006860.959098,77380,1719006860,952739392,base_link,0.023899383783628828,-0.02799956585475384,-0.8549523096951996,-0.5173988111007529,1.0,0.0,0.0,0.0,1.0,0.0,0.0,0.0,1.0,-0.00011523469584062696,0.0004588084411807359,0.00028544489759951824,1.2184696791468346e-07,0.0,0.0,0.0,1.2184696791468346e-07,0.0,0.0,0.0,1.2184696791468346e-07,-0.6821692585945129,0.22975115478038907,9.776415824890137,8.999999999999999e-08,0.0,0.0,0.0,8.999999999999999e-08,0.0,0.0,0.0,8.999999999999999e-08
1719006860.9647849,77381,1719006860,957739392,base_link,0.023900013187542334,-0.028000037537257685,-0.8549522780850632,-0.5173985898297981,1.0,0.0,0.0,0.0,1.0,0.0,0.0,0.0,1.0,0.00012198393233120441,0.0004647550522349775,-5.931698251515632e-05,1.2184696791468346e-07,0.0,0.0,0.0,1.2184696791468346e-07,0.0,0.0,0.0,1.2184696791468346e-07,-0.6974093317985535,0.21532584726810575,9.78048324584961,8.999999999999999e-08,0.0,0.0,0.0,8.999999999999999e-08,0.0,0.0,0.0,8.999999999999999e-08
1719006860.9710014,77382,1719006860,962739392,base_link,0.023899324349986983,-0.028002006585336556,-0.8549513613911082,-0.5174002651670265,1.0,0.0,0.0,0.0,1.0,0.0,0.0,0.0,1.0,0.0003795032389461994,1.4066401490708767e-05,-0.0003737704246304929,1.2184696791468346e-07,0.0,0.0,0.0,1.2184696791468346e-07,0.0,0.0,0.0,1.2184696791468346e-07,-0.6840862035751343,0.225332558155061,9.773761749267578,8.999999999999999e-08,0.0,0.0,0.0,8.999999999999999e-08,0.0,0.0,0.0,8.999999999999999e-08
1719006860.9773593,77383,1719006860,972739392,base_link,0.023902160371910612,-0.02800124629570209,-0.8549497598108647,-0.517402625390543,1.0,0.0,0.0,0.0,1.0,0.0,0.0,0.0,1.0,-5.13601116836071e-05,0.00037513778079301113,-0.0006636424805037677,1.2184696791468346e-07,0.0,0.0,0.0,1.2184696791468346e-07,0.0,0.0,0.0,1.2184696791468346e-07,-0.69191974401474,0.23531202971935392,9.762380599975586,8.999999999999999e-08,0.0,0.0,0.0,8.999999999999999e-08,0.0,0.0,0.0,8.999999999999999e-08
1719006860.983923,77384,1719006860,977739392,base_link,0.0239021987321282,-0.02800191916355312,-0.8549492751221068,-0.517403447254089,1.0,0.0,0.0,0.0,1.0,0.0,0.0,0.0,1.0,0.0002647682558745146,0.00029373902361840004,-0.00033139906008727854,1.2184696791468346e-07,0.0,0.0,0.0,1.2184696791468346e-07,0.0,0.0,0.0,1.2184696791468346e-07,-0.6826776266098022,0.23560896515846372,9.78269100189209,8.999999999999999e-08,0.0,0.0,0.0,8.999999999999999e-08,0.0,0.0,0.0,8.999999999999999e-08
1719006860.9893684,77385,1719006860,982739392,base_link,0.023901363203783697,-0.02800313401353422,-0.8549490854612886,-0.5174037212086045,1.0,0.0,0.0,0.0,1.0,0.0,0.0,0.0,1.0,0.000296709593385458,0.00016303124721162018,-0.00032192422077059746,1.2184696791468346e-07,0.0,0.0,0.0,1.2184696791468346e-07,0.0,0.0,0.0,1.2184696791468346e-07,-0.6843550205230713,0.2346648722887051,9.76952075958252,8.999999999999999e-08,0.0,0.0,0.0,8.999999999999999e-08,0.0,0.0,0.0,8.999999999999999e-08
1719006860.998917,77386,1719006860,992739392,base_link,0.023899049078382646,-0.02800416792841175,-0.8549474944177573,-0.517406408070197,1.0,0.0,0.0,0.0,1.0,0.0,0.0,0.0,1.0,0.0004111912567168474,-0.0002039197133854032,-0.0005174449179321527,1.2184696791468346e-07,0.0,0.0,0.0,1.2184696791468346e-07,0.0,0.0,0.0,1.2184696791468346e-07,-0.6799376010894775,0.23402947187423825,9.773232460021973,8.999999999999999e-08,0.0,0.0,0.0,8.999999999999999e-08,0.0,0.0,0.0,8.999999999999999e-08
1719006861.0031238,77387,1719006860,997739392,base_link,0.02389725964831833,-0.028002448633337534,-0.8549487377497883,-0.5174046589759838,1.0,0.0,0.0,0.0,1.0,0.0,0.0,0.0,1.0,0.0003908546641469002,-0.000441614945884794,-2.1097657736390775e-05,1.2184696791468346e-07,0.0,0.0,0.0,1.2184696791468346e-07,0.0,0.0,0.0,1.2184696791468346e-07,-0.6633229851722717,0.2322617471218121,9.78983211517334,8.999999999999999e-08,0.0,0.0,0.0,8.999999999999999e-08,0.0,0.0,0.0,8.999999999999999e-08
1719006861.0089674,77388,1719006861,2739392,base_link,0.02389852224277626,-0.02800176028969057,-0.8549490117043037,-0.5174039635529833,1.0,0.0,0.0,0.0,1.0,0.0,0.0,0.0,1.0,-5.9733574744313955e-05,-0.0001573710760567337,0.0002809891593642533,1.2184696791468346e-07,0.0,0.0,0.0,1.2184696791468346e-07,0.0,0.0,0.0,1.2184696791468346e-07,-0.6900859475135803,0.22694015502929807,9.772076606750488,8.999999999999999e-08,0.0,0.0,0.0,8.999999999999999e-08,0.0,0.0,0.0,8.999999999999999e-08
1719006861.0151446,77389,1719006861,7739392,base_link,0.02389959682277716,-0.02800149176816744,-0.8549485691623944,-0.5174047432696808,1.0,0.0,0.0,0.0,1.0,0.0,0.0,0.0,1.0,-0.00039628639933653176,0.00017777588800527155,-2.1754996851086637e-05,1.2184696791468346e-07,0.0,0.0,0.0,1.2184696791468346e-07,0.0,0.0,0.0,1.2184696791468346e-07,-0.68702232837677,0.21885111927986264,9.781378746032715,8.999999999999999e-08,0.0,0.0,0.0,8.999999999999999e-08,0.0,0.0,0.0,8.999999999999999e-08
1719006861.0199497,77390,1719006861,12739392,base_link,0.023901724250810198,-0.028000022884642383,-0.854948790433349,-0.5174043534113321,1.0,0.0,0.0,0.0,1.0,0.0,0.0,0.0,1.0,-0.0003972289268858731,0.0003689790901262313,0.00011110596824437376,1.2184696791468346e-07,0.0,0.0,0.0,1.2184696791468346e-07,0.0,0.0,0.0,1.2184696791468346e-07,-0.6790738105773926,0.21491937339305997,9.785467147827148,8.999999999999999e-08,0.0,0.0,0.0,8.999999999999999e-08,0.0,0.0,0.0,8.999999999999999e-08
1719006861.0241356,77391,1719006861,17739392,base_link,0.023900801300682263,-0.028000987981618833,-0.8549492435119705,-0.5174035631579225,1.0,0.0,0.0,0.0,1.0,0.0,0.0,0.0,1.0,8.177122799679637e-05,-3.122913767583667e-05,0.00013684615259990096,1.2184696791468346e-07,0.0,0.0,0.0,1.2184696791468346e-07,0.0,0.0,0.0,1.2184696791468346e-07,-0.6790738105773926,0.21491937339305997,9.785467147827148,8.999999999999999e-08,0.0,0.0,0.0,8.999999999999999e-08,0.0,0.0,0.0,8.999999999999999e-08
1719006861.032958,77392,1719006861,27739392,base_link,0.023899920826675088,-0.028000229996890145,-0.8549507186516684,-0.5174012450812544,1.0,0.0,0.0,0.0,1.0,0.0,0.0,0.0,1.0,9.810033952817321e-05,-0.00018705221009440712,0.0005618039285764098,1.2184696791468346e-07,0.0,0.0,0.0,1.2184696791468346e-07,0.0,0.0,0.0,1.2184696791468346e-07,-0.6812303066253662,0.22797243297100186,9.77753734588623,8.999999999999999e-08,0.0,0.0,0.0,8.999999999999999e-08,0.0,0.0,0.0,8.999999999999999e-08
1719006861.0373042,77393,1719006861,32739392,base_link,0.023899294221575742,-0.027999760783928206,-0.8549509293859109,-0.5174009500533148,1.0,0.0,0.0,0.0,1.0,0.0,0.0,0.0,1.0,4.46279882453382e-05,-0.0001550460583530366,0.0005295026348903775,1.2184696791468346e-07,0.0,0.0,0.0,1.2184696791468346e-07,0.0,0.0,0.0,1.2184696791468346e-07,-0.6798906922340393,0.2360095977783215,9.77669620513916,8.999999999999999e-08,0.0,0.0,0.0,8.999999999999999e-08,0.0,0.0,0.0,8.999999999999999e-08
1719006861.0441656,77394,1719006861,37739392,base_link,0.023900907490984172,-0.02799920118573255,-0.8549509926061837,-0.5174009711267391,1.0,0.0,0.0,0.0,1.0,0.0,0.0,0.0,1.0,-0.00016717257676646113,0.00011545429879333828,0.00037200836231932044,1.2184696791468346e-07,0.0,0.0,0.0,1.2184696791468346e-07,0.0,0.0,0.0,1.2184696791468346e-07,-0.6855729222297668,0.22619685530662656,9.776924133300781,8.999999999999999e-08,0.0,0.0,0.0,8.999999999999999e-08,0.0,0.0,0.0,8.999999999999999e-08
1719006861.050124,77395,1719006861,42739392,base_link,0.02390010917040437,-0.027999462133993836,-0.854952098960957,-0.5173989375412984,1.0,0.0,0.0,0.0,1.0,0.0,0.0,0.0,1.0,9.938719449564815e-05,2.58910513366573e-05,0.00035451428266242146,1.2184696791468346e-07,0.0,0.0,0.0,1.2184696791468346e-07,0.0,0.0,0.0,1.2184696791468346e-07,-0.6815282106399536,0.23068875074386716,9.762911796569824,8.999999999999999e-08,0.0,0.0,0.0,8.999999999999999e-08,0.0,0.0,0.0,8.999999999999999e-08
1719006861.058059,77396,1719006861,52739392,base_link,0.02390179981879249,-0.027998445835181893,-0.8549525520395787,-0.51739840016898,1.0,0.0,0.0,0.0,1.0,0.0,0.0,0.0,1.0,-0.00022368162171915174,0.00010024346556747335,0.00019386247731745243,1.2184696791468346e-07,0.0,0.0,0.0,1.2184696791468346e-07,0.0,0.0,0.0,1.2184696791468346e-07,-0.6747131943702698,0.2240728735923779,9.800931930541992,8.999999999999999e-08,0.0,0.0,0.0,8.999999999999999e-08,0.0,0.0,0.0,8.999999999999999e-08
1719006861.0630498,77397,1719006861,57739904,base_link,0.023902188195416074,-0.02799748320774735,-0.854952825994094,-0.5173979576270705,1.0,0.0,0.0,0.0,1.0,0.0,0.0,0.0,1.0,-0.00016660388791933656,8.329787669936199e-05,0.0002861417015083134,1.2184696791468346e-07,0.0,0.0,0.0,1.2184696791468346e-07,0.0,0.0,0.0,1.2184696791468346e-07,-0.7056257724761963,0.2224588096141827,9.784981727600098,8.999999999999999e-08,0.0,0.0,0.0,8.999999999999999e-08,0.0,0.0,0.0,8.999999999999999e-08
1719006861.0730183,77398,1719006861,62739904,base_link,0.023900807721491214,-0.02799864767907359,-0.8549540061058521,-0.517396018872039,1.0,0.0,0.0,0.0,1.0,0.0,0.0,0.0,1.0,0.00018898979760706425,-4.697211261373008e-05,0.00042127096094191074,1.2184696791468346e-07,0.0,0.0,0.0,1.2184696791468346e-07,0.0,0.0,0.0,1.2184696791468346e-07,-0.6915383338928223,0.22133728861808896,9.778104782104492,8.999999999999999e-08,0.0,0.0,0.0,8.999999999999999e-08,0.0,0.0,0.0,8.999999999999999e-08
1719006861.0752,77399,1719006861,67739904,base_link,0.023900106371590214,-0.027998279552693624,-0.8549537005412005,-0.5173964930240847,1.0,0.0,0.0,0.0,1.0,0.0,0.0,0.0,1.0,0.00030337111093103886,0.0001767105277394876,7.177726365625856e-05,1.2184696791468346e-07,0.0,0.0,0.0,1.2184696791468346e-07,0.0,0.0,0.0,1.2184696791468346e-07,-0.6872539520263672,0.22458527982235074,9.76911449432373,8.999999999999999e-08,0.0,0.0,0.0,8.999999999999999e-08,0.0,0.0,0.0,8.999999999999999e-08
1719006861.0791128,77400,1719006861,72739904,base_link,0.02390142560087583,-0.027999736747053666,-0.8549532790727153,-0.5173970830799639,1.0,0.0,0.0,0.0,1.0,0.0,0.0,0.0,1.0,0.00026995548978447914,7.555344200227408e-05,-5.9408775996416814e-05,1.2184696791468346e-07,0.0,0.0,0.0,1.2184696791468346e-07,0.0,0.0,0.0,1.2184696791468346e-07,-0.6872539520263672,0.22458527982235074,9.76911449432373,8.999999999999999e-08,0.0,0.0,0.0,8.999999999999999e-08,0.0,0.0,0.0,8.999999999999999e-08
1719006861.0840366,77401,1719006861,77739904,base_link,0.023899478943310234,-0.027996815443616253,-0.8549530578017607,-0.5173976415257067,1.0,0.0,0.0,0.0,1.0,0.0,0.0,0.0,1.0,-0.00016830337699502707,-0.0004252656945027411,-0.00017171664512716228,1.2184696791468346e-07,0.0,0.0,0.0,1.2184696791468346e-07,0.0,0.0,0.0,1.2184696791468346e-07,-0.6724879741668701,0.2306622564792645,9.772191047668457,8.999999999999999e-08,0.0,0.0,0.0,8.999999999999999e-08,0.0,0.0,0.0,8.999999999999999e-08
1719006861.0900674,77402,1719006861,82739904,base_link,0.02389912398782043,-0.027997138788969672,-0.8549528259940938,-0.5173980419207675,1.0,0.0,0.0,0.0,1.0,0.0,0.0,0.0,1.0,-8.426152635365725e-05,-0.0005101418937556446,-0.0003660428046714514,1.2184696791468346e-07,0.0,0.0,0.0,1.2184696791468346e-07,0.0,0.0,0.0,1.2184696791468346e-07,-0.6812576055526733,0.23128190636634946,9.782087326049805,8.999999999999999e-08,0.0,0.0,0.0,8.999999999999999e-08,0.0,0.0,0.0,8.999999999999999e-08
1719006861.0975335,77403,1719006861,92739904,base_link,0.023897374564334974,-0.027993519757626054,-0.8549523096951996,-0.5173990639818439,1.0,0.0,0.0,0.0,1.0,0.0,0.0,0.0,1.0,-0.0002495148219168186,-0.0006189759587869048,-0.00015730658196844152,1.2184696791468346e-07,0.0,0.0,0.0,1.2184696791468346e-07,0.0,0.0,0.0,1.2184696791468346e-07,-0.6833801865577698,0.2396019697189343,9.787262916564941,8.999999999999999e-08,0.0,0.0,0.0,8.999999999999999e-08,0.0,0.0,0.0,8.999999999999999e-08
1719006861.1040158,77404,1719006861,97739904,base_link,0.023895726227431493,-0.02799339792689208,-0.8549527733105332,-0.5173986003665103,1.0,0.0,0.0,0.0,1.0,0.0,0.0,0.0,1.0,4.491652362048626e-05,-0.0003833916853182017,0.00025971926515921956,1.2184696791468346e-07,0.0,0.0,0.0,1.2184696791468346e-07,0.0,0.0,0.0,1.2184696791468346e-07,-0.6807376146316528,0.22301366925239682,9.776479721069336,8.999999999999999e-08,0.0,0.0,0.0,8.999999999999999e-08,0.0,0.0,0.0,8.999999999999999e-08
1719006861.112012,77405,1719006861,102739904,base_link,0.023895442724020804,-0.027993944848105957,-0.8549527943839575,-0.517398326411995,1.0,0.0,0.0,0.0,1.0,0.0,0.0,0.0,1.0,0.000368521548807621,-0.00015629621339030558,0.0003652272862382233,1.2184696791468346e-07,0.0,0.0,0.0,1.2184696791468346e-07,0.0,0.0,0.0,1.2184696791468346e-07,-0.6859406232833862,0.22162234783172727,9.774005889892578,8.999999999999999e-08,0.0,0.0,0.0,8.999999999999999e-08,0.0,0.0,0.0,8.999999999999999e-08
1719006861.1175766,77406,1719006861,112739904,base_link,0.02389348898710175,-0.02799394402492532,-0.8549538691285945,-0.5173966616114788,1.0,0.0,0.0,0.0,1.0,0.0,0.0,0.0,1.0,0.00022875412832945585,-0.0003188216651324182,0.00027409766335040336,1.2184696791468346e-07,0.0,0.0,0.0,1.2184696791468346e-07,0.0,0.0,0.0,1.2184696791468346e-07,-0.6747687458992004,0.2308550626039517,9.782439231872559,8.999999999999999e-08,0.0,0.0,0.0,8.999999999999999e-08,0.0,0.0,0.0,8.999999999999999e-08
1719006861.123208,77407,1719006861,117739904,base_link,0.023894111640934045,-0.02799095587922035,-0.8549528997510788,-0.5173984739259647,1.0,0.0,0.0,0.0,1.0,0.0,0.0,0.0,1.0,-0.0003929473168682307,-0.0005703967763110995,-0.00015586926019750527,1.2184696791468346e-07,0.0,0.0,0.0,1.2184696791468346e-07,0.0,0.0,0.0,1.2184696791468346e-07,-0.6659119129180908,0.22934377193451047,9.774996757507324,8.999999999999999e-08,0.0,0.0,0.0,8.999999999999999e-08,0.0,0.0,0.0,8.999999999999999e-08
1719006861.1292272,77408,1719006861,122739904,base_link,0.023893240715822238,-0.0279897352669748,-0.8549527627738212,-0.5173988637843135,1.0,0.0,0.0,0.0,1.0,0.0,0.0,0.0,1.0,-0.0005062769050709903,-0.00012477397103793922,-0.0001534954935777932,1.2184696791468346e-07,0.0,0.0,0.0,1.2184696791468346e-07,0.0,0.0,0.0,1.2184696791468346e-07,-0.6841365694999695,0.21511881053447843,9.794755935668945,8.999999999999999e-08,0.0,0.0,0.0,8.999999999999999e-08,0.0,0.0,0.0,8.999999999999999e-08
1719006861.1348665,77409,1719006861,127739904,base_link,0.02389557887809783,-0.027990089234647842,-0.8549529313612152,-0.5173984423158284,1.0,0.0,0.0,0.0,1.0,0.0,0.0,0.0,1.0,-0.00029853597516193986,8.659510058350837e-06,-0.00018708183779381216,1.2184696791468346e-07,0.0,0.0,0.0,1.2184696791468346e-07,0.0,0.0,0.0,1.2184696791468346e-07,-0.6966845393180847,0.22703388333320737,9.781281471252441,8.999999999999999e-08,0.0,0.0,0.0,8.999999999999999e-08,0.0,0.0,0.0,8.999999999999999e-08
1719006861.1407309,77410,1719006861,132739904,base_link,0.023893851515853392,-0.02798876621873131,-0.8549533633664124,-0.5173978417232371,1.0,0.0,0.0,0.0,1.0,0.0,0.0,0.0,1.0,-0.00021659396588802338,-3.0694864108226935e-06,0.00021129206288605928,1.2184696791468346e-07,0.0,0.0,0.0,1.2184696791468346e-07,0.0,0.0,0.0,1.2184696791468346e-07,-0.7014153003692627,0.23090915381908536,9.772807121276855,8.999999999999999e-08,0.0,0.0,0.0,8.999999999999999e-08,0.0,0.0,0.0,8.999999999999999e-08
1719006861.1476793,77411,1719006861,137739904,base_link,0.023893603079937757,-0.02798886187232109,-0.8549541746932462,-0.5173965246342211,1.0,0.0,0.0,0.0,1.0,0.0,0.0,0.0,1.0,-1.7998041585087776e-05,-0.0003397420514374971,0.00027092261007055646,1.2184696791468346e-07,0.0,0.0,0.0,1.2184696791468346e-07,0.0,0.0,0.0,1.2184696791468346e-07,-0.6975452899932861,0.22873511910438657,9.775239944458008,8.999999999999999e-08,0.0,0.0,0.0,8.999999999999999e-08,0.0,0.0,0.0,8.999999999999999e-08
1719006861.1499872,77412,1719006861,147739904,base_link,0.023894204824981925,-0.027988865988224264,-0.854954564551595,-0.5173958818947814,1.0,0.0,0.0,0.0,1.0,0.0,0.0,0.0,1.0,-4.429428372532129e-06,-2.457859955029559e-05,0.0002527277101762593,1.2184696791468346e-07,0.0,0.0,0.0,1.2184696791468346e-07,0.0,0.0,0.0,1.2184696791468346e-07,-0.6844674348831177,0.22383487224578977,9.78034496307373,8.999999999999999e-08,0.0,0.0,0.0,8.999999999999999e-08,0.0,0.0,0.0,8.999999999999999e-08
1719006861.1578872,77413,1719006861,152739904,base_link,0.023895468901165,-0.027986943367533212,-0.8549545750883072,-0.5173958713580693,1.0,0.0,0.0,0.0,1.0,0.0,0.0,0.0,1.0,-0.00027434079675003886,0.00020785859669558707,0.0001875392626971006,1.2184696791468346e-07,0.0,0.0,0.0,1.2184696791468346e-07,0.0,0.0,0.0,1.2184696791468346e-07,-0.6863732933998108,0.21738378703594327,9.784100532531738,8.999999999999999e-08,0.0,0.0,0.0,8.999999999999999e-08,0.0,0.0,0.0,8.999999999999999e-08
1719006861.1640587,77414,1719006861,157739136,base_link,0.023895904857629283,-0.027987381958175527,-0.8549553442682924,-0.5173945964159018,1.0,0.0,0.0,0.0,1.0,0.0,0.0,0.0,1.0,-5.728640826418996e-05,0.00016580917872488504,0.00039353943429887295,1.2184696791468346e-07,0.0,0.0,0.0,1.2184696791468346e-07,0.0,0.0,0.0,1.2184696791468346e-07,-0.698840320110321,0.2340226024389279,9.77697467803955,8.999999999999999e-08,0.0,0.0,0.0,8.999999999999999e-08,0.0,0.0,0.0,8.999999999999999e-08
1719006861.1697922,77415,1719006861,162739136,base_link,0.023895822374929657,-0.02798732746361749,-0.8549559764710201,-0.517393542744689,1.0,0.0,0.0,0.0,1.0,0.0,0.0,0.0,1.0,-0.00027782859979197383,0.00021031789947301152,0.00014335929881781337,1.2184696791468346e-07,0.0,0.0,0.0,1.2184696791468346e-07,0.0,0.0,0.0,1.2184696791468346e-07,-0.689127504825592,0.23363609611988187,9.776394844055176,8.999999999999999e-08,0.0,0.0,0.0,8.999999999999999e-08,0.0,0.0,0.0,8.999999999999999e-08
1719006861.177452,77416,1719006861,172739136,base_link,0.023898328959963168,-0.027984373068318556,-0.8549527417003968,-0.5173989691514348,1.0,0.0,0.0,0.0,1.0,0.0,0.0,0.0,1.0,-0.00048452310147695243,0.00010566854325588782,-0.0008583394228480756,1.2184696791468346e-07,0.0,0.0,0.0,1.2184696791468346e-07,0.0,0.0,0.0,1.2184696791468346e-07,-0.6839892864227295,0.21964357793331266,9.786629676818848,8.999999999999999e-08,0.0,0.0,0.0,8.999999999999999e-08,0.0,0.0,0.0,8.999999999999999e-08
1719006861.1840582,77417,1719006861,177739136,base_link,0.02389884114295425,-0.027984477282986944,-0.8549533633664125,-0.5173979260169341,1.0,0.0,0.0,0.0,1.0,0.0,0.0,0.0,1.0,-0.00021300348453223705,4.575029743136836e-05,-0.0001773000112734735,1.2184696791468346e-07,0.0,0.0,0.0,1.2184696791468346e-07,0.0,0.0,0.0,1.2184696791468346e-07,-0.6790357828140259,0.21282941102981687,9.784608840942383,8.999999999999999e-08,0.0,0.0,0.0,8.999999999999999e-08,0.0,0.0,0.0,8.999999999999999e-08
1719006861.1899524,77418,1719006861,182739136,base_link,0.023897806734168338,-0.027983715182355078,-0.8549539112754431,-0.5173968723457214,1.0,0.0,0.0,0.0,1.0,0.0,0.0,0.0,1.0,-1.100159715861082e-05,-0.0002686247753445059,0.00021673756418749693,1.2184696791468346e-07,0.0,0.0,0.0,1.2184696791468346e-07,0.0,0.0,0.0,1.2184696791468346e-07,-0.6980721354484558,0.22380469739437223,9.781816482543945,8.999999999999999e-08,0.0,0.0,0.0,8.999999999999999e-08,0.0,0.0,0.0,8.999999999999999e-08
1719006861.1978579,77419,1719006861,192739136,base_link,0.023898963138324354,-0.02798087817261469,-0.8549545961617314,-0.517396018872039,1.0,0.0,0.0,0.0,1.0,0.0,0.0,0.0,1.0,-0.00041563090053386986,-0.0001598467351868748,0.00033390294993296266,1.2184696791468346e-07,0.0,0.0,0.0,1.2184696791468346e-07,0.0,0.0,0.0,1.2184696791468346e-07,-0.6715852618217468,0.23463129997253537,9.778923988342285,8.999999999999999e-08,0.0,0.0,0.0,8.999999999999999e-08,0.0,0.0,0.0,8.999999999999999e-08
1719006861.202922,77420,1719006861,197739136,base_link,0.023897988821724794,-0.027980435301433074,-0.8549553337315803,-0.5173948598337049,1.0,0.0,0.0,0.0,1.0,0.0,0.0,0.0,1.0,-0.00016850518295541406,-0.0002754648157861083,0.0004806463839486242,1.2184696791468346e-07,0.0,0.0,0.0,1.2184696791468346e-07,0.0,0.0,0.0,1.2184696791468346e-07,-0.6886256337165833,0.2387041449546826,9.786555290222168,8.999999999999999e-08,0.0,0.0,0.0,8.999999999999999e-08,0.0,0.0,0.0,8.999999999999999e-08
1719006861.2090385,77421,1719006861,202739136,base_link,0.023898628762350427,-0.027980917520649042,-0.8549563557926567,-0.5173930791293554,1.0,0.0,0.0,0.0,1.0,0.0,0.0,0.0,1.0,1.4514022041112185e-05,-0.00011075790825998405,0.0004737128037959337,1.2184696791468346e-07,0.0,0.0,0.0,1.2184696791468346e-07,0.0,0.0,0.0,1.2184696791468346e-07,-0.6750738024711609,0.22807489335537076,9.787704467773438,8.999999999999999e-08,0.0,0.0,0.0,8.999999999999999e-08,0.0,0.0,0.0,8.999999999999999e-08
1719006861.215115,77422,1719006861,207739136,base_link,0.023898468406762734,-0.027980614260903116,-0.8549565138433386,-0.5173930053723704,1.0,0.0,0.0,0.0,1.0,0.0,0.0,0.0,1.0,-5.939236143603921e-05,0.00011723840725608175,0.00048184546176344156,1.2184696791468346e-07,0.0,0.0,0.0,1.2184696791468346e-07,0.0,0.0,0.0,1.2184696791468346e-07,-0.6855766773223877,0.22026342153549314,9.774959564208984,8.999999999999999e-08,0.0,0.0,0.0,8.999999999999999e-08,0.0,0.0,0.0,8.999999999999999e-08
1719006861.219043,77423,1719006861,212739136,base_link,0.023900386911550612,-0.027979043467615452,-0.8549568931649751,-0.5173921202885517,1.0,0.0,0.0,0.0,1.0,0.0,0.0,0.0,1.0,-0.0005228020017966628,0.00021853315411135557,0.0002922320272773504,1.2184696791468346e-07,0.0,0.0,0.0,1.2184696791468346e-07,0.0,0.0,0.0,1.2184696791468346e-07,-0.690902054309845,0.22405973076820493,9.764179229736328,8.999999999999999e-08,0.0,0.0,0.0,8.999999999999999e-08,0.0,0.0,0.0,8.999999999999999e-08
1719006861.2260108,77424,1719006861,217739136,base_link,0.0239019035395525,-0.027978838660273467,-0.854956461159778,-0.5173929737622341,1.0,0.0,0.0,0.0,1.0,0.0,0.0,0.0,1.0,-0.00048678743769414723,0.0003830964560620487,-3.054313128814106e-05,1.2184696791468346e-07,0.0,0.0,0.0,1.2184696791468346e-07,0.0,0.0,0.0,1.2184696791468346e-07,-0.7009168863296509,0.22178174555301786,9.775278091430664,8.999999999999999e-08,0.0,0.0,0.0,8.999999999999999e-08,0.0,0.0,0.0,8.999999999999999e-08
1719006861.23011,77425,1719006861,222739136,base_link,0.023903034260472703,-0.027977929210307943,-0.8549569353118237,-0.5173921624354003,1.0,0.0,0.0,0.0,1.0,0.0,0.0,0.0,1.0,-0.0005153161473572254,0.00016534270253032449,0.00018513901159167287,1.2184696791468346e-07,0.0,0.0,0.0,1.2184696791468346e-07,0.0,0.0,0.0,1.2184696791468346e-07,-0.6758249402046204,0.22463124990463376,9.773947715759277,8.999999999999999e-08,0.0,0.0,0.0,8.999999999999999e-08,0.0,0.0,0.0,8.999999999999999e-08
1719006861.2377443,77426,1719006861,232739136,base_link,0.023900442064653155,-0.027974030791456814,-0.8549584842085065,-0.5173897706017473,1.0,0.0,0.0,0.0,1.0,0.0,0.0,0.0,1.0,-0.00033244368387386203,-0.0006604315130971371,0.00044429465197026735,1.2184696791468346e-07,0.0,0.0,0.0,1.2184696791468346e-07,0.0,0.0,0.0,1.2184696791468346e-07,-0.6868519186973572,0.21709588170051694,9.781091690063477,8.999999999999999e-08,0.0,0.0,0.0,8.999999999999999e-08,0.0,0.0,0.0,8.999999999999999e-08
1719006861.243218,77427,1719006861,237739136,base_link,0.023901635018029367,-0.02797249539493645,-0.8549596327101284,-0.5173881163379432,1.0,0.0,0.0,0.0,1.0,0.0,0.0,0.0,1.0,-0.0003944253548979759,-0.00025322363944724197,0.0005996163235977292,1.2184696791468346e-07,0.0,0.0,0.0,1.2184696791468346e-07,0.0,0.0,0.0,1.2184696791468346e-07,-0.6866163015365601,0.23475101590156675,9.768970489501953,8.999999999999999e-08,0.0,0.0,0.0,8.999999999999999e-08,0.0,0.0,0.0,8.999999999999999e-08
1719006861.2487588,77428,1719006861,242739136,base_link,0.02390185563043954,-0.027972438101564256,-0.8549598645177953,-0.5173877159428824,1.0,0.0,0.0,0.0,1.0,0.0,0.0,0.0,1.0,-0.00021132011897861958,-7.514197932323438e-05,0.0002481139381416142,1.2184696791468346e-07,0.0,0.0,0.0,1.2184696791468346e-07,0.0,0.0,0.0,1.2184696791468346e-07,-0.6953832507133484,0.2293618470430386,9.787635803222656,8.999999999999999e-08,0.0,0.0,0.0,8.999999999999999e-08,0.0,0.0,0.0,8.999999999999999e-08
1719006861.255093,77429,1719006861,247739136,base_link,0.023901454247561925,-0.027972749922388785,-0.8549593060720525,-0.5173884429760192,1.0,0.0,0.0,0.0,1.0,0.0,0.0,0.0,1.0,-1.588393934071064e-05,0.00012966876965947452,0.00015306920977309343,1.2184696791468346e-07,0.0,0.0,0.0,1.2184696791468346e-07,0.0,0.0,0.0,1.2184696791468346e-07,-0.6814218759536743,0.22504621744156003,9.756857872009277,8.999999999999999e-08,0.0,0.0,0.0,8.999999999999999e-08,0.0,0.0,0.0,8.999999999999999e-08
1719006861.262102,77430,1719006861,252738368,base_link,0.023903946179980134,-0.027972923778138894,-0.854959759150674,-0.5173876527226097,1.0,0.0,0.0,0.0,1.0,0.0,0.0,0.0,1.0,-0.00011756195453926921,0.0005664406344294548,0.00010925979586318128,1.2184696791468346e-07,0.0,0.0,0.0,1.2184696791468346e-07,0.0,0.0,0.0,1.2184696791468346e-07,-0.6715068221092224,0.23321123421192289,9.781352996826172,8.999999999999999e-08,0.0,0.0,0.0,8.999999999999999e-08,0.0,0.0,0.0,8.999999999999999e-08
1719006861.265044,77431,1719006861,257738368,base_link,0.023906898599645548,-0.027975218641113086,-0.8549584631350822,-0.5173895387940805,1.0,0.0,0.0,0.0,1.0,0.0,0.0,0.0,1.0,0.00014413404278457165,0.0009886784246191382,-0.0004920512437820436,1.2184696791468346e-07,0.0,0.0,0.0,1.2184696791468346e-07,0.0,0.0,0.0,1.2184696791468346e-07,-0.701030969619751,0.23240171372890592,9.781709671020508,8.999999999999999e-08,0.0,0.0,0.0,8.999999999999999e-08,0.0,0.0,0.0,8.999999999999999e-08
1719006861.2702935,77432,1719006861,262738368,base_link,0.023907415392448186,-0.027976487821016097,-0.8549578098589303,-0.5173904449513235,1.0,0.0,0.0,0.0,1.0,0.0,0.0,0.0,1.0,0.0003494368866086006,0.0008390545845031737,-0.00045469473116099845,1.2184696791468346e-07,0.0,0.0,0.0,1.2184696791468346e-07,0.0,0.0,0.0,1.2184696791468346e-07,-0.6874325275421143,0.2257922589778912,9.789366722106934,8.999999999999999e-08,0.0,0.0,0.0,8.999999999999999e-08,0.0,0.0,0.0,8.999999999999999e-08
1719006861.2774127,77433,1719006861,272738368,base_link,0.023909412428668644,-0.027977841459252258,-0.8549562504255355,-0.5173928473216886,1.0,0.0,0.0,0.0,1.0,0.0,0.0,0.0,1.0,2.9428629204630852e-05,0.0004956224584020673,-0.0005882288096472622,1.2184696791468346e-07,0.0,0.0,0.0,1.2184696791468346e-07,0.0,0.0,0.0,1.2184696791468346e-07,-0.6859948039054871,0.2279464006423962,9.786015510559082,8.999999999999999e-08,0.0,0.0,0.0,8.999999999999999e-08,0.0,0.0,0.0,8.999999999999999e-08
1719006861.2837727,77434,1719006861,277738368,base_link,0.023909379830715498,-0.02797467089671857,-0.8549572198030512,-0.5173916250630818,1.0,0.0,0.0,0.0,1.0,0.0,0.0,0.0,1.0,-0.0004640597035177052,-0.00028027253574691713,4.4994638301432167e-05,1.2184696791468346e-07,0.0,0.0,0.0,1.2184696791468346e-07,0.0,0.0,0.0,1.2184696791468346e-07,-0.6839529275894165,0.21834538877010465,9.774309158325195,8.999999999999999e-08,0.0,0.0,0.0,8.999999999999999e-08,0.0,0.0,0.0,8.999999999999999e-08
1719006861.290206,77435,1719006861,282738368,base_link,0.02390818407852513,-0.027973379984846797,-0.8549579995197486,-0.5173904238778992,1.0,0.0,0.0,0.0,1.0,0.0,0.0,0.0,1.0,-0.0005863312399014831,-0.0002958759723696857,0.0004134272458031774,1.2184696791468346e-07,0.0,0.0,0.0,1.2184696791468346e-07,0.0,0.0,0.0,1.2184696791468346e-07,-0.6816917061805725,0.22942258417606473,9.75796890258789,8.999999999999999e-08,0.0,0.0,0.0,8.999999999999999e-08,0.0,0.0,0.0,8.999999999999999e-08
1719006861.2999384,77436,1719006861,292738368,base_link,0.023908606699463125,-0.02797433240484147,-0.8549585368920671,-0.5173892964497016,1.0,0.0,0.0,0.0,1.0,0.0,0.0,0.0,1.0,8.275272557511926e-05,-9.542873158352445e-05,0.0003680799272842705,1.2184696791468346e-07,0.0,0.0,0.0,1.2184696791468346e-07,0.0,0.0,0.0,1.2184696791468346e-07,-0.6950719356536865,0.23810860514640927,9.774524688720703,8.999999999999999e-08,0.0,0.0,0.0,8.999999999999999e-08,0.0,0.0,0.0,8.999999999999999e-08
1719006861.3041499,77437,1719006861,297738368,base_link,0.023907500344689716,-0.027973415710886358,-0.8549577361019454,-0.5173909401767934,1.0,0.0,0.0,0.0,1.0,0.0,0.0,0.0,1.0,0.0002778475172817707,-9.376618982059884e-05,-0.00027372274780645967,1.2184696791468346e-07,0.0,0.0,0.0,1.2184696791468346e-07,0.0,0.0,0.0,1.2184696791468346e-07,-0.6860812306404114,0.22507140040397763,9.780455589294434,8.999999999999999e-08,0.0,0.0,0.0,8.999999999999999e-08,0.0,0.0,0.0,8.999999999999999e-08
1719006861.3103075,77438,1719006861,302738368,base_link,0.02390885266583686,-0.027974096975179868,-0.8549573357068846,-0.5173912562781573,1.0,0.0,0.0,0.0,1.0,0.0,0.0,0.0,1.0,5.0318718422204256e-05,0.00019610769231803713,-0.00024768130970187485,1.2184696791468346e-07,0.0,0.0,0.0,1.2184696791468346e-07,0.0,0.0,0.0,1.2184696791468346e-07,-0.6738876700401306,0.2212296575307858,9.783770561218262,8.999999999999999e-08,0.0,0.0,0.0,8.999999999999999e-08,0.0,0.0,0.0,8.999999999999999e-08
1719006861.317433,77439,1719006861,312738368,base_link,0.023906667450523243,-0.02797337932630229,-0.8549572408764754,-0.5173916882833546,1.0,0.0,0.0,0.0,1.0,0.0,0.0,0.0,1.0,0.00014044810086488724,-0.00029149200418032706,-0.00020516299991868434,1.2184696791468346e-07,0.0,0.0,0.0,1.2184696791468346e-07,0.0,0.0,0.0,1.2184696791468346e-07,-0.6829096674919128,0.22446654736995816,9.768669128417969,8.999999999999999e-08,0.0,0.0,0.0,8.999999999999999e-08,0.0,0.0,0.0,8.999999999999999e-08
1719006861.3230042,77440,1719006861,317738368,base_link,0.02390809188229401,-0.027973698720388664,-0.854957209266339,-0.5173916355997938,1.0,0.0,0.0,0.0,1.0,0.0,0.0,0.0,1.0,3.71956848539412e-05,-5.260608304524794e-05,1.8685124814510352e-05,1.2184696791468346e-07,0.0,0.0,0.0,1.2184696791468346e-07,0.0,0.0,0.0,1.2184696791468346e-07,-0.6764510869979858,0.245253309607507,9.782167434692383,8.999999999999999e-08,0.0,0.0,0.0,8.999999999999999e-08,0.0,0.0,0.0,8.999999999999999e-08
1719006861.3291104,77441,1719006861,322738368,base_link,0.023907593528737597,-0.027974592200649868,-0.8549572935600361,-0.5173914670123999,1.0,0.0,0.0,0.0,1.0,0.0,0.0,0.0,1.0,-0.00014786660904064775,0.00037457712460309267,0.0001516497577540576,1.2184696791468346e-07,0.0,0.0,0.0,1.2184696791468346e-07,0.0,0.0,0.0,1.2184696791468346e-07,-0.6924014687538147,0.21452774107456327,9.775106430053711,8.999999999999999e-08,0.0,0.0,0.0,8.999999999999999e-08,0.0,0.0,0.0,8.999999999999999e-08
1719006861.3391156,77442,1719006861,332738368,base_link,0.023910190663640953,-0.027977005272363246,-0.8549564822332022,-0.5173925312203247,1.0,0.0,0.0,0.0,1.0,0.0,0.0,0.0,1.0,0.00016724749002605677,0.0006157204625196755,-0.00011362126679159709,1.2184696791468346e-07,0.0,0.0,0.0,1.2184696791468346e-07,0.0,0.0,0.0,1.2184696791468346e-07,-0.6852948665618896,0.23169977962970853,9.776246070861816,8.999999999999999e-08,0.0,0.0,0.0,8.999999999999999e-08,0.0,0.0,0.0,8.999999999999999e-08
1719006861.3409686,77443,1719006861,337738368,base_link,0.023909808707826323,-0.02797757162064011,-0.8549568826282631,-0.5173918779441729,1.0,0.0,0.0,0.0,1.0,0.0,0.0,0.0,1.0,0.00040872988756746054,0.0003363684518262744,-0.00016116740880534058,1.2184696791468346e-07,0.0,0.0,0.0,1.2184696791468346e-07,0.0,0.0,0.0,1.2184696791468346e-07,-0.6875172853469849,0.21577125787735105,9.771651268005371,8.999999999999999e-08,0.0,0.0,0.0,8.999999999999999e-08,0.0,0.0,0.0,8.999999999999999e-08
1719006861.3473008,77444,1719006861,342738368,base_link,0.0239120632349494,-0.027978298983049175,-0.8549575991246877,-0.517390571391869,1.0,0.0,0.0,0.0,1.0,0.0,0.0,0.0,1.0,0.0002272316487506032,0.0005162387387827039,0.00020106072770431632,1.2184696791468346e-07,0.0,0.0,0.0,1.2184696791468346e-07,0.0,0.0,0.0,1.2184696791468346e-07,-0.6886519193649292,0.22465771436691404,9.781615257263184,8.999999999999999e-08,0.0,0.0,0.0,8.999999999999999e-08,0.0,0.0,0.0,8.999999999999999e-08
1719006861.354169,77445,1719006861,347738368,base_link,0.02391022638968051,-0.027979888215583063,-0.8549571987296268,-0.5173911403743239,1.0,0.0,0.0,0.0,1.0,0.0,0.0,0.0,1.0,0.000611697556450963,0.00010000981274060908,0.00019274285295978189,1.2184696791468346e-07,0.0,0.0,0.0,1.2184696791468346e-07,0.0,0.0,0.0,1.2184696791468346e-07,-0.6701374650001526,0.23091769218444944,9.759873390197754,8.999999999999999e-08,0.0,0.0,0.0,8.999999999999999e-08,0.0,0.0,0.0,8.999999999999999e-08
1719006861.3602757,77446,1719006861,352738880,base_link,0.023908571138059696,-0.027979393977929826,-0.8549582102539911,-0.5173896230877775,1.0,0.0,0.0,0.0,1.0,0.0,0.0,0.0,1.0,0.00017657713033258915,-0.00040085890213958914,0.0005183711182326078,1.2184696791468346e-07,0.0,0.0,0.0,1.2184696791468346e-07,0.0,0.0,0.0,1.2184696791468346e-07,-0.6744565963745117,0.21269594132900357,9.784444808959961,8.999999999999999e-08,0.0,0.0,0.0,8.999999999999999e-08,0.0,0.0,0.0,8.999999999999999e-08
1719006861.3639812,77447,1719006861,357738880,base_link,0.02390882072642822,-0.027978248769030444,-0.8549592217783555,-0.5173881900949281,1.0,0.0,0.0,0.0,1.0,0.0,0.0,0.0,1.0,-0.0001102134701795876,-0.00038643489824607963,0.00036148127401247626,1.2184696791468346e-07,0.0,0.0,0.0,1.2184696791468346e-07,0.0,0.0,0.0,1.2184696791468346e-07,-0.6744565963745117,0.21269594132900357,9.784444808959961,8.999999999999999e-08,0.0,0.0,0.0,8.999999999999999e-08,0.0,0.0,0.0,8.999999999999999e-08
1719006861.3702111,77448,1719006861,362738880,base_link,0.02390880755553806,-0.027977555980208044,-0.8549586211857642,-0.5173889592749135,1.0,0.0,0.0,0.0,1.0,0.0,0.0,0.0,1.0,3.5969424061477184e-05,3.252325768698938e-05,5.706737283617254e-06,1.2184696791468346e-07,0.0,0.0,0.0,1.2184696791468346e-07,0.0,0.0,0.0,1.2184696791468346e-07,-0.6888768672943115,0.23375266790390134,9.775737762451172,8.999999999999999e-08,0.0,0.0,0.0,8.999999999999999e-08,0.0,0.0,0.0,8.999999999999999e-08
1719006861.3788,77449,1719006861,372738880,base_link,0.023909371763545274,-0.027979041162709672,-0.8549579573729001,-0.5173901288499596,1.0,0.0,0.0,0.0,1.0,0.0,0.0,0.0,1.0,8.6459971498698e-05,0.00012656874605454502,-0.0002714080910664052,1.2184696791468346e-07,0.0,0.0,0.0,1.2184696791468346e-07,0.0,0.0,0.0,1.2184696791468346e-07,-0.6996116042137146,0.22188547253608823,9.796575546264648,8.999999999999999e-08,0.0,0.0,0.0,8.999999999999999e-08,0.0,0.0,0.0,8.999999999999999e-08
1719006861.3833022,77450,1719006861,377738880,base_link,0.023910348220414487,-0.02797926062266696,-0.8549569458485358,-0.517391730430203,1.0,0.0,0.0,0.0,1.0,0.0,0.0,0.0,1.0,4.613323835656047e-05,0.00014224786718841637,-0.0004311618395149708,1.2184696791468346e-07,0.0,0.0,0.0,1.2184696791468346e-07,0.0,0.0,0.0,1.2184696791468346e-07,-0.6964632272720337,0.24756042659282804,9.773115158081055,8.999999999999999e-08,0.0,0.0,0.0,8.999999999999999e-08,0.0,0.0,0.0,8.999999999999999e-08
1719006861.3889992,77451,1719006861,382738880,base_link,0.023910146705795044,-0.02797923032961959,-0.8549574305372937,-0.517390908566657,1.0,0.0,0.0,0.0,1.0,0.0,0.0,0.0,1.0,-3.6134792026132345e-05,-0.00018209827248938382,-4.933518357574938e-05,1.2184696791468346e-07,0.0,0.0,0.0,1.2184696791468346e-07,0.0,0.0,0.0,1.2184696791468346e-07,-0.6862460374832153,0.23467496037483335,9.774978637695312,8.999999999999999e-08,0.0,0.0,0.0,8.999999999999999e-08,0.0,0.0,0.0,8.999999999999999e-08
1719006861.3952997,77452,1719006861,387738880,base_link,0.02390822507292075,-0.027977659042423542,-0.8549577150285211,-0.5173904554880355,1.0,0.0,0.0,0.0,1.0,0.0,0.0,0.0,1.0,-0.00018949923105537891,-0.0004966004635207355,0.00016482628416270023,1.2184696791468346e-07,0.0,0.0,0.0,1.2184696791468346e-07,0.0,0.0,0.0,1.2184696791468346e-07,-0.6863217353820801,0.21033953130245328,9.791694641113281,8.999999999999999e-08,0.0,0.0,0.0,8.999999999999999e-08,0.0,0.0,0.0,8.999999999999999e-08
1719006861.400316,77453,1719006861,397738880,base_link,0.023908634358332462,-0.027975980083200444,-0.8549597486139618,-0.5173873260845336,1.0,0.0,0.0,0.0,1.0,0.0,0.0,0.0,1.0,-0.00024231214774772525,-0.0003522720071487128,0.0006125998916104436,1.2184696791468346e-07,0.0,0.0,0.0,1.2184696791468346e-07,0.0,0.0,0.0,1.2184696791468346e-07,-0.6864134073257446,0.2234235405921948,9.77354907989502,8.999999999999999e-08,0.0,0.0,0.0,8.999999999999999e-08,0.0,0.0,0.0,8.999999999999999e-08
1719006861.4071462,77454,1719006861,402738880,base_link,0.02390827775648139,-0.027976147024233216,-0.8549599698849165,-0.5173869362261849,1.0,0.0,0.0,0.0,1.0,0.0,0.0,0.0,1.0,-2.3656291887164116e-05,-6.471871893154449e-05,0.0006212719017639756,1.2184696791468346e-07,0.0,0.0,0.0,1.2184696791468346e-07,0.0,0.0,0.0,1.2184696791468346e-07,-0.681532621383667,0.23544411361217618,9.769948959350586,8.999999999999999e-08,0.0,0.0,0.0,8.999999999999999e-08,0.0,0.0,0.0,8.999999999999999e-08
1719006861.4145608,77455,1719006861,407738880,base_link,0.02390627413481585,-0.02797653852894321,-0.8549599382747801,-0.5173870521300183,1.0,0.0,0.0,0.0,1.0,0.0,0.0,0.0,1.0,0.00036004523281008005,-0.00015255875769071278,0.00027250434504821897,1.2184696791468346e-07,0.0,0.0,0.0,1.2184696791468346e-07,0.0,0.0,0.0,1.2184696791468346e-07,-0.6782186627388,0.2279583066701901,9.788830757141113,8.999999999999999e-08,0.0,0.0,0.0,8.999999999999999e-08,0.0,0.0,0.0,8.999999999999999e-08
1719006861.4203365,77456,1719006861,412738880,base_link,0.023908023229029053,-0.02797772390905758,-0.8549600857887499,-0.5173866517349575,1.0,0.0,0.0,0.0,1.0,0.0,0.0,0.0,1.0,6.199092604219913e-05,0.00010749152716016397,-3.4959637559950365e-05,1.2184696791468346e-07,0.0,0.0,0.0,1.2184696791468346e-07,0.0,0.0,0.0,1.2184696791468346e-07,-0.6773080229759216,0.20950494706630826,9.783190727233887,8.999999999999999e-08,0.0,0.0,0.0,8.999999999999999e-08,0.0,0.0,0.0,8.999999999999999e-08
1719006861.42429,77457,1719006861,417738880,base_link,0.023907456057571552,-0.027975693780975596,-0.8549591374846583,-0.5173883586823221,1.0,0.0,0.0,0.0,1.0,0.0,0.0,0.0,1.0,-0.00010900013148784637,-0.00017725781071931126,-0.0002854369522538036,1.2184696791468346e-07,0.0,0.0,0.0,1.2184696791468346e-07,0.0,0.0,0.0,1.2184696791468346e-07,-0.6773080229759216,0.20950494706630826,9.783190727233887,8.999999999999999e-08,0.0,0.0,0.0,8.999999999999999e-08,0.0,0.0,0.0,8.999999999999999e-08
1719006861.4301982,77458,1719006861,422738880,base_link,0.023906593858174476,-0.02797606075490267,-0.8549596221734163,-0.5173875368187761,1.0,0.0,0.0,0.0,1.0,0.0,0.0,0.0,1.0,5.988730117678642e-05,-0.0002337094629183412,-0.00022027650265954432,1.2184696791468346e-07,0.0,0.0,0.0,1.2184696791468346e-07,0.0,0.0,0.0,1.2184696791468346e-07,-0.6998052597045898,0.24439842998981595,9.795736312866211,8.999999999999999e-08,0.0,0.0,0.0,8.999999999999999e-08,0.0,0.0,0.0,8.999999999999999e-08
1719006861.4378417,77459,1719006861,432738880,base_link,0.023908319574057646,-0.02797610520665696,-0.8549594009024616,-0.5173878423834279,1.0,0.0,0.0,0.0,1.0,0.0,0.0,0.0,1.0,-0.00015158677706494927,0.00013436403241939843,-4.0521204937249436e-05,1.2184696791468346e-07,0.0,0.0,0.0,1.2184696791468346e-07,0.0,0.0,0.0,1.2184696791468346e-07,-0.7013829350471497,0.23436185717582822,9.779685020446777,8.999999999999999e-08,0.0,0.0,0.0,8.999999999999999e-08,0.0,0.0,0.0,8.999999999999999e-08
1719006861.443151,77460,1719006861,437738880,base_link,0.023907059119869366,-0.027974083475017453,-0.8549593903657495,-0.517388021507534,1.0,0.0,0.0,0.0,1.0,0.0,0.0,0.0,1.0,-0.00022875401191413403,-0.0002111328940372914,7.042306242510679e-05,1.2184696791468346e-07,0.0,0.0,0.0,1.2184696791468346e-07,0.0,0.0,0.0,1.2184696791468346e-07,-0.7042319774627686,0.22028511762619138,9.793119430541992,8.999999999999999e-08,0.0,0.0,0.0,8.999999999999999e-08,0.0,0.0,0.0,8.999999999999999e-08
1719006861.4529083,77461,1719006861,442738880,base_link,0.023907096492270196,-0.02797407771275301,-0.8549610973131141,-0.5173853873295021,1.0,0.0,0.0,0.0,1.0,0.0,0.0,0.0,1.0,-0.00017808913253247738,-0.000298632017802447,0.0005275364965200424,1.2184696791468346e-07,0.0,0.0,0.0,1.2184696791468346e-07,0.0,0.0,0.0,1.2184696791468346e-07,-0.6973088979721069,0.23061917722225309,9.778870582580566,8.999999999999999e-08,0.0,0.0,0.0,8.999999999999999e-08,0.0,0.0,0.0,8.999999999999999e-08
1719006861.45566,77462,1719006861,447738880,base_link,0.023905870776304714,-0.027974818739960616,-0.8549613818043417,-0.5173848499571837,1.0,0.0,0.0,0.0,1.0,0.0,0.0,0.0,1.0,0.00016520824283361435,-0.0005433413316495715,0.0008097912650555373,1.2184696791468346e-07,0.0,0.0,0.0,1.2184696791468346e-07,0.0,0.0,0.0,1.2184696791468346e-07,-0.6659513115882874,0.22552035748958707,9.785994529724121,8.999999999999999e-08,0.0,0.0,0.0,8.999999999999999e-08,0.0,0.0,0.0,8.999999999999999e-08
1719006861.4621406,77463,1719006861,457738880,base_link,0.02390589382536249,-0.02797665542059338,-0.8549611289232505,-0.5173851871319717,1.0,0.0,0.0,0.0,1.0,0.0,0.0,0.0,1.0,0.00039496365934610367,9.109957318287345e-05,0.0002519830595701933,1.2184696791468346e-07,0.0,0.0,0.0,1.2184696791468346e-07,0.0,0.0,0.0,1.2184696791468346e-07,-0.688366711139679,0.22302015125751615,9.778972625732422,8.999999999999999e-08,0.0,0.0,0.0,8.999999999999999e-08,0.0,0.0,0.0,8.999999999999999e-08
1719006861.4680398,77464,1719006861,462738880,base_link,0.023906839659912082,-0.027977274287794753,-0.854960760138326,-0.5173857245042902,1.0,0.0,0.0,0.0,1.0,0.0,0.0,0.0,1.0,0.00043142284266650677,0.0004945378168486059,-6.40210928395391e-05,1.2184696791468346e-07,0.0,0.0,0.0,1.2184696791468346e-07,0.0,0.0,0.0,1.2184696791468346e-07,-0.6758811473846436,0.23140472173690915,9.769307136535645,8.999999999999999e-08,0.0,0.0,0.0,8.999999999999999e-08,0.0,0.0,0.0,8.999999999999999e-08
1719006861.474129,77465,1719006861,467738880,base_link,0.02390782879376307,-0.027978903526907503,-0.8549598855912195,-0.5173868519324879,1.0,0.0,0.0,0.0,1.0,0.0,0.0,0.0,1.0,0.0002418970689177513,0.0006442828453145921,-0.0004223878495395184,1.2184696791468346e-07,0.0,0.0,0.0,1.2184696791468346e-07,0.0,0.0,0.0,1.2184696791468346e-07,-0.6652482748031616,0.21720512211322904,9.763525009155273,8.999999999999999e-08,0.0,0.0,0.0,8.999999999999999e-08,0.0,0.0,0.0,8.999999999999999e-08
1719006861.4803913,77466,1719006861,472738880,base_link,0.02390751038749346,-0.02797854758360094,-0.8549595273430071,-0.5173876316491853,1.0,0.0,0.0,0.0,1.0,0.0,0.0,0.0,1.0,0.00016866542864590883,2.8739130357280333e-05,-0.00032514927443116903,1.2184696791468346e-07,0.0,0.0,0.0,1.2184696791468346e-07,0.0,0.0,0.0,1.2184696791468346e-07,-0.6774706840515137,0.23755288124084592,9.79033088684082,8.999999999999999e-08,0.0,0.0,0.0,8.999999999999999e-08,0.0,0.0,0.0,8.999999999999999e-08
1719006861.485247,77467,1719006861,477738880,base_link,0.023907563400326355,-0.027978073102282935,-0.8549598118342345,-0.5173871785705638,1.0,0.0,0.0,0.0,1.0,0.0,0.0,0.0,1.0,-0.0001437673345208168,-4.098819044884295e-05,-4.2055209632962935e-05,1.2184696791468346e-07,0.0,0.0,0.0,1.2184696791468346e-07,0.0,0.0,0.0,1.2184696791468346e-07,-0.6728024482727051,0.22263653576374173,9.796453475952148,8.999999999999999e-08,0.0,0.0,0.0,8.999999999999999e-08,0.0,0.0,0.0,8.999999999999999e-08
1719006861.4922075,77468,1719006861,487738880,base_link,0.023904627938182023,-0.0279771995429931,-0.8549602438394318,-0.5173866622716696,1.0,0.0,0.0,0.0,1.0,0.0,0.0,0.0,1.0,2.7197995223104954e-05,-0.00043576944153755903,0.00011933152563869959,1.2184696791468346e-07,0.0,0.0,0.0,1.2184696791468346e-07,0.0,0.0,0.0,1.2184696791468346e-07,-0.6767875552177429,0.2265496701002133,9.774551391601562,8.999999999999999e-08,0.0,0.0,0.0,8.999999999999999e-08,0.0,0.0,0.0,8.999999999999999e-08
1719006861.4989274,77469,1719006861,492738880,base_link,0.023902376539145356,-0.027979967240924022,-0.854961086776402,-0.5173852292788202,1.0,0.0,0.0,0.0,1.0,0.0,0.0,0.0,1.0,0.0006467545172199607,-0.000496253604069352,0.0004449752159416676,1.2184696791468346e-07,0.0,0.0,0.0,1.2184696791468346e-07,0.0,0.0,0.0,1.2184696791468346e-07,-0.6875192523002625,0.21996136009693265,9.770333290100098,8.999999999999999e-08,0.0,0.0,0.0,8.999999999999999e-08,0.0,0.0,0.0,8.999999999999999e-08
1719006861.503198,77470,1719006861,497738880,base_link,0.02390187983195021,-0.027979452423754908,-0.8549603597432652,-0.5173863777804422,1.0,0.0,0.0,0.0,1.0,0.0,0.0,0.0,1.0,0.000766441342420876,-0.00033289435668848455,8.675776189193134e-05,1.2184696791468346e-07,0.0,0.0,0.0,1.2184696791468346e-07,0.0,0.0,0.0,1.2184696791468346e-07,-0.691741406917572,0.22689756751060605,9.776288986206055,8.999999999999999e-08,0.0,0.0,0.0,8.999999999999999e-08,0.0,0.0,0.0,8.999999999999999e-08
1719006861.5107248,77471,1719006861,502738880,base_link,0.023898283685028242,-0.02798126786632729,-0.8549604967205229,-0.5173861565094874,1.0,0.0,0.0,0.0,1.0,0.0,0.0,0.0,1.0,0.0007845602231100202,-0.00044451886788010597,1.2244796380400712e-05,1.2184696791468346e-07,0.0,0.0,0.0,1.2184696791468346e-07,0.0,0.0,0.0,1.2184696791468346e-07,-0.6961069107055664,0.23134076595306516,9.79630184173584,8.999999999999999e-08,0.0,0.0,0.0,8.999999999999999e-08,0.0,0.0,0.0,8.999999999999999e-08
1719006861.5151727,77472,1719006861,507738880,base_link,0.02389842971727289,-0.027981279884764558,-0.8549610657029777,-0.5173852503522445,1.0,0.0,0.0,0.0,1.0,0.0,0.0,0.0,1.0,0.00029243319295346737,-0.0003103749477304518,8.112809155136351e-05,1.2184696791468346e-07,0.0,0.0,0.0,1.2184696791468346e-07,0.0,0.0,0.0,1.2184696791468346e-07,-0.6815658807754517,0.23576687276363492,9.790295600891113,8.999999999999999e-08,0.0,0.0,0.0,8.999999999999999e-08,0.0,0.0,0.0,8.999999999999999e-08
1719006861.5213885,77473,1719006861,517738880,base_link,0.02389937917381727,-0.027981636980524013,-0.8549627621136304,-0.5173823738298335,1.0,0.0,0.0,0.0,1.0,0.0,0.0,0.0,1.0,-4.297727718949318e-05,0.00019096324103884407,0.0006670906441286206,1.2184696791468346e-07,0.0,0.0,0.0,1.2184696791468346e-07,0.0,0.0,0.0,1.2184696791468346e-07,-0.6832553148269653,0.22136245667934537,9.784435272216797,8.999999999999999e-08,0.0,0.0,0.0,8.999999999999999e-08,0.0,0.0,0.0,8.999999999999999e-08
1719006861.5279863,77474,1719006861,522738880,base_link,0.023897880491153232,-0.02798018538379229,-0.8549617716626904,-0.5173841229240468,1.0,0.0,0.0,0.0,1.0,0.0,0.0,0.0,1.0,-6.814772495999932e-05,-0.00016787723870947954,0.0001707332557998598,1.2184696791468346e-07,0.0,0.0,0.0,1.2184696791468346e-07,0.0,0.0,0.0,1.2184696791468346e-07,-0.6840242147445679,0.2221437543630612,9.776596069335938,8.999999999999999e-08,0.0,0.0,0.0,8.999999999999999e-08,0.0,0.0,0.0,8.999999999999999e-08
1719006861.5330331,77475,1719006861,527738880,base_link,0.023897980589918443,-0.027980680609262294,-0.8549607706750382,-0.5173859668486692,1.0,0.0,0.0,0.0,1.0,0.0,0.0,0.0,1.0,-0.0001404159120284021,-0.0002266983210574836,-0.0004661217972170561,1.2184696791468346e-07,0.0,0.0,0.0,1.2184696791468346e-07,0.0,0.0,0.0,1.2184696791468346e-07,-0.6883797645568848,0.23359964787960172,9.777727127075195,8.999999999999999e-08,0.0,0.0,0.0,8.999999999999999e-08,0.0,0.0,0.0,8.999999999999999e-08
1719006861.539297,77476,1719006861,532738880,base_link,0.02389714736647972,-0.027979037705351005,-0.8549607917484624,-0.5173858614815479,1.0,0.0,0.0,0.0,1.0,0.0,0.0,0.0,1.0,-6.020034197717905e-05,-0.0005983589799143374,-0.0001948342542164027,1.2184696791468346e-07,0.0,0.0,0.0,1.2184696791468346e-07,0.0,0.0,0.0,1.2184696791468346e-07,-0.6865172386169434,0.22558243572712064,9.768850326538086,8.999999999999999e-08,0.0,0.0,0.0,8.999999999999999e-08,0.0,0.0,0.0,8.999999999999999e-08
1719006861.5442865,77477,1719006861,537738880,base_link,0.02389517519031444,-0.027978944685939255,-0.8549612448270839,-0.5173854084029264,1.0,0.0,0.0,0.0,1.0,0.0,0.0,0.0,1.0,-1.784128835424781e-05,-0.00033545377664268017,5.4300064221024554e-05,1.2184696791468346e-07,0.0,0.0,0.0,1.2184696791468346e-07,0.0,0.0,0.0,1.2184696791468346e-07,-0.6766976118087769,0.23465637862682462,9.779932975769043,8.999999999999999e-08,0.0,0.0,0.0,8.999999999999999e-08,0.0,0.0,0.0,8.999999999999999e-08
1719006861.551194,77478,1719006861,547738880,base_link,0.023894969889064074,-0.027978043632416207,-0.8549626567465092,-0.517382984959137,1.0,0.0,0.0,0.0,1.0,0.0,0.0,0.0,1.0,-7.538526551797986e-05,-0.0002867568400688469,0.0004937968915328383,1.2184696791468346e-07,0.0,0.0,0.0,1.2184696791468346e-07,0.0,0.0,0.0,1.2184696791468346e-07,-0.6975832581520081,0.23494701087474942,9.789499282836914,8.999999999999999e-08,0.0,0.0,0.0,8.999999999999999e-08,0.0,0.0,0.0,8.999999999999999e-08
1719006861.55905,77479,1719006861,552738880,base_link,0.02389585958269436,-0.02798075222597754,-0.8549625092325392,-0.5173830481794098,1.0,0.0,0.0,0.0,1.0,0.0,0.0,0.0,1.0,0.00033631641417741776,0.0002878592349588871,0.0001897180336527526,1.2184696791468346e-07,0.0,0.0,0.0,1.2184696791468346e-07,0.0,0.0,0.0,1.2184696791468346e-07,-0.7043800354003906,0.22529563307762265,9.782906532287598,8.999999999999999e-08,0.0,0.0,0.0,8.999999999999999e-08,0.0,0.0,0.0,8.999999999999999e-08
1719006861.5676215,77480,1719006861,557737856,base_link,0.02389673692861512,-0.02798229305549009,-0.8549622458147361,-0.51738339589091,1.0,0.0,0.0,0.0,1.0,0.0,0.0,0.0,1.0,0.0003546825610101223,0.0004987944266758859,-1.1663651093841209e-06,1.2184696791468346e-07,0.0,0.0,0.0,1.2184696791468346e-07,0.0,0.0,0.0,1.2184696791468346e-07,-0.7043800354003906,0.22529563307762265,9.782906532287598,8.999999999999999e-08,0.0,0.0,0.0,8.999999999999999e-08,0.0,0.0,0.0,8.999999999999999e-08
1719006861.5693052,77481,1719006861,562737856,base_link,0.02389649195005815,-0.02798163714516014,-0.854961908639948,-0.5173839859467891,1.0,0.0,0.0,0.0,1.0,0.0,0.0,0.0,1.0,0.0002819392830133438,0.000266204442596063,-1.9488099496811662e-05,1.2184696791468346e-07,0.0,0.0,0.0,1.2184696791468346e-07,0.0,0.0,0.0,1.2184696791468346e-07,-0.6907526850700378,0.21857306361198545,9.780532836914062,8.999999999999999e-08,0.0,0.0,0.0,8.999999999999999e-08,0.0,0.0,0.0,8.999999999999999e-08
1719006861.575648,77482,1719006861,567737856,base_link,0.02389698849261717,-0.027982178468745702,-0.8549622879615847,-0.5173833537440614,1.0,0.0,0.0,0.0,1.0,0.0,0.0,0.0,1.0,0.00014903582632541656,7.819064921932296e-05,9.366701124235986e-05,1.2184696791468346e-07,0.0,0.0,0.0,1.2184696791468346e-07,0.0,0.0,0.0,1.2184696791468346e-07,-0.6927593350410461,0.21506869792938352,9.778395652770996,8.999999999999999e-08,0.0,0.0,0.0,8.999999999999999e-08,0.0,0.0,0.0,8.999999999999999e-08
1719006861.5813963,77483,1719006861,577737856,base_link,0.023896183092683907,-0.027984516960293547,-0.8549631941188276,-0.5173816889435453,1.0,0.0,0.0,0.0,1.0,0.0,0.0,0.0,1.0,0.0002584814792498946,2.7823669370263862e-05,0.0003817099495790899,1.2184696791468346e-07,0.0,0.0,0.0,1.2184696791468346e-07,0.0,0.0,0.0,1.2184696791468346e-07,-0.6923059821128845,0.21577119827270627,9.791411399841309,8.999999999999999e-08,0.0,0.0,0.0,8.999999999999999e-08,0.0,0.0,0.0,8.999999999999999e-08
1719006861.5874598,77484,1719006861,582737856,base_link,0.023895237258134316,-0.027982544125583757,-0.8549650485801621,-0.5173787386641496,1.0,0.0,0.0,0.0,1.0,0.0,0.0,0.0,1.0,6.272114114835858e-05,-0.00021531383390538384,0.0007928170962259173,1.2184696791468346e-07,0.0,0.0,0.0,1.2184696791468346e-07,0.0,0.0,0.0,1.2184696791468346e-07,-0.6824610233306885,0.22695836424827695,9.773245811462402,8.999999999999999e-08,0.0,0.0,0.0,8.999999999999999e-08,0.0,0.0,0.0,8.999999999999999e-08
1719006861.5939786,77485,1719006861,587737856,base_link,0.023892645556223148,-0.027982775603978317,-0.8549643004736011,-0.5173802454139839,1.0,0.0,0.0,0.0,1.0,0.0,0.0,0.0,1.0,0.0002565727336332202,-0.00042773381574079394,0.00012493325630202895,1.2184696791468346e-07,0.0,0.0,0.0,1.2184696791468346e-07,0.0,0.0,0.0,1.2184696791468346e-07,-0.6763247847557068,0.23098738491535306,9.786097526550293,8.999999999999999e-08,0.0,0.0,0.0,8.999999999999999e-08,0.0,0.0,0.0,8.999999999999999e-08
1719006861.6032493,77486,1719006861,592737856,base_link,0.02389249853616174,-0.027983433654577915,-0.8549639316886766,-0.5173806141989084,1.0,0.0,0.0,0.0,1.0,0.0,0.0,0.0,1.0,0.00023563927970826626,-0.00032304294290952384,-5.1153183449059684e-05,1.2184696791468346e-07,0.0,0.0,0.0,1.2184696791468346e-07,0.0,0.0,0.0,1.2184696791468346e-07,-0.7037602066993713,0.223533481359483,9.780410766601562,8.999999999999999e-08,0.0,0.0,0.0,8.999999999999999e-08,0.0,0.0,0.0,8.999999999999999e-08
1719006861.6044319,77487,1719006861,597737856,base_link,0.023891923956078528,-0.02798341817878198,-0.8549646587218134,-0.5173796342846805,1.0,0.0,0.0,0.0,1.0,0.0,0.0,0.0,1.0,0.0001257398398593068,-0.00032913108589127654,0.000308999267872423,1.2184696791468346e-07,0.0,0.0,0.0,1.2184696791468346e-07,0.0,0.0,0.0,1.2184696791468346e-07,-0.6785895824432373,0.2164446711540234,9.774269104003906,8.999999999999999e-08,0.0,0.0,0.0,8.999999999999999e-08,0.0,0.0,0.0,8.999999999999999e-08
1719006861.6103842,77488,1719006861,602737856,base_link,0.023891209435287365,-0.027981682914003447,-0.8549658388335717,-0.517377779823346,1.0,0.0,0.0,0.0,1.0,0.0,0.0,0.0,1.0,-3.127288073301315e-05,-0.00056114315520972,0.0005500511033460499,1.2184696791468346e-07,0.0,0.0,0.0,1.2184696791468346e-07,0.0,0.0,0.0,1.2184696791468346e-07,-0.6915007829666138,0.21775415539741635,9.791942596435547,8.999999999999999e-08,0.0,0.0,0.0,8.999999999999999e-08,0.0,0.0,0.0,8.999999999999999e-08
1719006861.6201353,77489,1719006861,612737856,base_link,0.023888018951782317,-0.027983445673015188,-0.8549651855574197,-0.5173788545679829,1.0,0.0,0.0,0.0,1.0,0.0,0.0,0.0,1.0,0.0005096981767565012,-0.0002641613536980003,-2.115411916747686e-05,1.2184696791468346e-07,0.0,0.0,0.0,1.2184696791468346e-07,0.0,0.0,0.0,1.2184696791468346e-07,-0.6849054098129272,0.2265336662530911,9.772796630859375,8.999999999999999e-08,0.0,0.0,0.0,8.999999999999999e-08,0.0,0.0,0.0,8.999999999999999e-08
1719006861.6240206,77490,1719006861,617737856,base_link,0.02388665806955657,-0.027984142742376886,-0.8549648483826316,-0.5173794446238622,1.0,0.0,0.0,0.0,1.0,0.0,0.0,0.0,1.0,0.000525033799931407,-0.0003455990226939321,-0.00043837033445015544,1.2184696791468346e-07,0.0,0.0,0.0,1.2184696791468346e-07,0.0,0.0,0.0,1.2184696791468346e-07,-0.6818320751190186,0.22292999923229337,9.771300315856934,8.999999999999999e-08,0.0,0.0,0.0,8.999999999999999e-08,0.0,0.0,0.0,8.999999999999999e-08
1719006861.6305962,77491,1719006861,622737856,base_link,0.023885126295031003,-0.027983140437635737,-0.854964627111677,-0.5173799187759078,1.0,0.0,0.0,0.0,1.0,0.0,0.0,0.0,1.0,0.0002772735897451639,-0.00026384129887446767,-0.0003205338725820183,1.2184696791468346e-07,0.0,0.0,0.0,1.2184696791468346e-07,0.0,0.0,0.0,1.2184696791468346e-07,-0.6800183653831482,0.21958403289318204,9.794527053833008,8.999999999999999e-08,0.0,0.0,0.0,8.999999999999999e-08,0.0,0.0,0.0,8.999999999999999e-08
1719006861.6367028,77492,1719006861,627737856,base_link,0.023886560275697136,-0.02798408248555441,-0.8549641002760706,-0.5173806984926054,1.0,0.0,0.0,0.0,1.0,0.0,0.0,0.0,1.0,6.017653504386544e-05,-0.00036204908974468713,-0.00026365061057731504,1.2184696791468346e-07,0.0,0.0,0.0,1.2184696791468346e-07,0.0,0.0,0.0,1.2184696791468346e-07,-0.6593487858772278,0.22452671825885892,9.795548439025879,8.999999999999999e-08,0.0,0.0,0.0,8.999999999999999e-08,0.0,0.0,0.0,8.999999999999999e-08
1719006861.6422195,77493,1719006861,632737856,base_link,0.023881895804947092,-0.027981919166845684,-0.8549640581292222,-0.5173810778142419,1.0,0.0,0.0,0.0,1.0,0.0,0.0,0.0,1.0,0.00010594085324555635,-0.0007307841442525387,-9.888899512588968e-05,1.2184696791468346e-07,0.0,0.0,0.0,1.2184696791468346e-07,0.0,0.0,0.0,1.2184696791468346e-07,-0.6818261742591858,0.22594323754310727,9.773110389709473,8.999999999999999e-08,0.0,0.0,0.0,8.999999999999999e-08,0.0,0.0,0.0,8.999999999999999e-08
1719006861.6454105,77494,1719006861,637737856,base_link,0.023882417207561287,-0.027982172212572876,-0.8549643847672981,-0.5173804982950749,1.0,0.0,0.0,0.0,1.0,0.0,0.0,0.0,1.0,6.732292240485549e-05,-0.00027806145953945816,8.029741002246742e-05,1.2184696791468346e-07,0.0,0.0,0.0,1.2184696791468346e-07,0.0,0.0,0.0,1.2184696791468346e-07,-0.6894168853759766,0.22608819603920102,9.803311347961426,8.999999999999999e-08,0.0,0.0,0.0,8.999999999999999e-08,0.0,0.0,0.0,8.999999999999999e-08
1719006861.650195,77495,1719006861,642737856,base_link,0.02388297334839828,-0.027982685548016847,-0.8549642899368889,-0.517380677419181,1.0,0.0,0.0,0.0,1.0,0.0,0.0,0.0,1.0,-0.0002886173315346241,-0.00022099012858234343,0.0001796697615645826,1.2184696791468346e-07,0.0,0.0,0.0,1.2184696791468346e-07,0.0,0.0,0.0,1.2184696791468346e-07,-0.6866136789321899,0.22591914236545682,9.781498908996582,8.999999999999999e-08,0.0,0.0,0.0,8.999999999999999e-08,0.0,0.0,0.0,8.999999999999999e-08
1719006861.6595435,77496,1719006861,652737856,base_link,0.02388310225848572,-0.027981023546314827,-0.8549644058407223,-0.5173804772216506,1.0,0.0,0.0,0.0,1.0,0.0,0.0,0.0,1.0,-0.00018753419863060117,-2.1201209165155884e-05,1.9946077372878793e-05,1.2184696791468346e-07,0.0,0.0,0.0,1.2184696791468346e-07,0.0,0.0,0.0,1.2184696791468346e-07,-0.6856499314308167,0.22450366616249204,9.790220260620117,8.999999999999999e-08,0.0,0.0,0.0,8.999999999999999e-08,0.0,0.0,0.0,8.999999999999999e-08
1719006861.6631916,77497,1719006861,657738880,base_link,0.023881610655175137,-0.02798374267658829,-0.8549647324787983,-0.5173798977024837,1.0,0.0,0.0,0.0,1.0,0.0,0.0,0.0,1.0,0.000531243160367012,0.00011772386642405766,0.00018735567573457954,1.2184696791468346e-07,0.0,0.0,0.0,1.2184696791468346e-07,0.0,0.0,0.0,1.2184696791468346e-07,-0.6841683387756348,0.2226795107126248,9.756758689880371,8.999999999999999e-08,0.0,0.0,0.0,8.999999999999999e-08,0.0,0.0,0.0,8.999999999999999e-08
1719006861.669579,77498,1719006861,662738880,base_link,0.02388230097445563,-0.027984727694536103,-0.8549648589193438,-0.5173796026745441,1.0,0.0,0.0,0.0,1.0,0.0,0.0,0.0,1.0,0.0005187472561374307,0.00030467836768366396,-1.5606579836458005e-05,1.2184696791468346e-07,0.0,0.0,0.0,1.2184696791468346e-07,0.0,0.0,0.0,1.2184696791468346e-07,-0.6835867762565613,0.2352636307477963,9.767935752868652,8.999999999999999e-08,0.0,0.0,0.0,8.999999999999999e-08,0.0,0.0,0.0,8.999999999999999e-08
1719006861.675386,77499,1719006861,667738880,base_link,0.023880568014582874,-0.027986502801257373,-0.8549638473949795,-0.5173812042547875,1.0,0.0,0.0,0.0,1.0,0.0,0.0,0.0,1.0,0.0005826887208968401,-9.316870273323728e-05,8.904188871383668e-05,1.2184696791468346e-07,0.0,0.0,0.0,1.2184696791468346e-07,0.0,0.0,0.0,1.2184696791468346e-07,-0.6722960472106934,0.21913851797580838,9.789204597473145,8.999999999999999e-08,0.0,0.0,0.0,8.999999999999999e-08,0.0,0.0,0.0,8.999999999999999e-08
1719006861.6832423,77500,1719006861,672738880,base_link,0.023880417866435053,-0.02798572045038189,-0.8549649853598893,-0.5173793919403015,1.0,0.0,0.0,0.0,1.0,0.0,0.0,0.0,1.0,0.0003827749751508236,-0.00013152323663234708,0.00020910036982968452,1.2184696791468346e-07,0.0,0.0,0.0,1.2184696791468346e-07,0.0,0.0,0.0,1.2184696791468346e-07,-0.6891897320747375,0.21101711690425992,9.790496826171875,8.999999999999999e-08,0.0,0.0,0.0,8.999999999999999e-08,0.0,0.0,0.0,8.999999999999999e-08
1719006861.6866324,77501,1719006861,677738880,base_link,0.02388012860075992,-0.027987858909035435,-0.8549654279017987,-0.517378527929907,1.0,0.0,0.0,0.0,1.0,0.0,0.0,0.0,1.0,0.00035225931787863374,-4.0068814996629926e-05,0.00022761966101825237,1.2184696791468346e-07,0.0,0.0,0.0,1.2184696791468346e-07,0.0,0.0,0.0,1.2184696791468346e-07,-0.690350353717804,0.21838550269603849,9.794798851013184,8.999999999999999e-08,0.0,0.0,0.0,8.999999999999999e-08,0.0,0.0,0.0,8.999999999999999e-08
1719006861.6915877,77502,1719006861,682738880,base_link,0.023880742693513615,-0.027988741029403876,-0.8549650801902985,-0.5173792128161954,1.0,0.0,0.0,0.0,1.0,0.0,0.0,0.0,1.0,0.00028459931490942836,0.0003701717359945178,-0.00010284510790370409,1.2184696791468346e-07,0.0,0.0,0.0,1.2184696791468346e-07,0.0,0.0,0.0,1.2184696791468346e-07,-0.6795642375946045,0.211541533470155,9.760235786437988,8.999999999999999e-08,0.0,0.0,0.0,8.999999999999999e-08,0.0,0.0,0.0,8.999999999999999e-08
1719006861.6992476,77503,1719006861,692738880,base_link,0.02388100051368849,-0.027986818408712824,-0.854963963298813,-0.51738091976356,1.0,0.0,0.0,0.0,1.0,0.0,0.0,0.0,1.0,-0.0003080465248785913,1.0713942174334043e-05,-0.0002863776171579957,1.2184696791468346e-07,0.0,0.0,0.0,1.2184696791468346e-07,0.0,0.0,0.0,1.2184696791468346e-07,-0.6963092684745789,0.2327885627746594,9.781845092773438,8.999999999999999e-08,0.0,0.0,0.0,8.999999999999999e-08,0.0,0.0,0.0,8.999999999999999e-08
1719006861.7043412,77504,1719006861,697738880,base_link,0.02388322985148414,-0.027988224236601238,-0.854963879005116,-0.517381088350954,1.0,0.0,0.0,0.0,1.0,0.0,0.0,0.0,1.0,-0.0002449225867167115,0.0002902558189816773,-9.716345812194053e-05,1.2184696791468346e-07,0.0,0.0,0.0,1.2184696791468346e-07,0.0,0.0,0.0,1.2184696791468346e-07,-0.6919728517532349,0.21694859862327695,9.777790069580078,8.999999999999999e-08,0.0,0.0,0.0,8.999999999999999e-08,0.0,0.0,0.0,8.999999999999999e-08
1719006861.7106535,77505,1719006861,702738880,base_link,0.0238823069013562,-0.027987287457038632,-0.8549648378459195,-0.5173793708668772,1.0,0.0,0.0,0.0,1.0,0.0,0.0,0.0,1.0,-9.453506208956242e-05,4.9210721044801216e-05,0.0003287701401859522,1.2184696791468346e-07,0.0,0.0,0.0,1.2184696791468346e-07,0.0,0.0,0.0,1.2184696791468346e-07,-0.7022490501403809,0.2194560170173657,9.76828670501709,8.999999999999999e-08,0.0,0.0,0.0,8.999999999999999e-08,0.0,0.0,0.0,8.999999999999999e-08
1719006861.7187557,77506,1719006861,712738880,base_link,0.023882378518071446,-0.027989533916991487,-0.8549662392286325,-0.517377126547194,1.0,0.0,0.0,0.0,1.0,0.0,0.0,0.0,1.0,0.00026203558081761,0.00018155071302317088,0.0005476370570249856,1.2184696791468346e-07,0.0,0.0,0.0,1.2184696791468346e-07,0.0,0.0,0.0,1.2184696791468346e-07,-0.6891435980796814,0.21393585205078244,9.78525447845459,8.999999999999999e-08,0.0,0.0,0.0,8.999999999999999e-08,0.0,0.0,0.0,8.999999999999999e-08
1719006861.7214093,77507,1719006861,717738880,base_link,0.023881801303810197,-0.027988082814168147,-0.8549661338615112,-0.5173772319143153,1.0,0.0,0.0,0.0,1.0,0.0,0.0,0.0,1.0,2.1769432350993156e-05,-5.340906500350679e-05,0.0003873931127600372,1.2184696791468346e-07,0.0,0.0,0.0,1.2184696791468346e-07,0.0,0.0,0.0,1.2184696791468346e-07,-0.6918193101882935,0.22402164340019345,9.764915466308594,8.999999999999999e-08,0.0,0.0,0.0,8.999999999999999e-08,0.0,0.0,0.0,8.999999999999999e-08
1719006861.7274435,77508,1719006861,722738880,base_link,0.02388141868945106,-0.02798863401592133,-0.8549664815730115,-0.5173766313217241,1.0,0.0,0.0,0.0,1.0,0.0,0.0,0.0,1.0,9.716337081044912e-05,-0.00023546323063783345,0.0002989162458106876,1.2184696791468346e-07,0.0,0.0,0.0,1.2184696791468346e-07,0.0,0.0,0.0,1.2184696791468346e-07,-0.6970862746238708,0.23331546783447385,9.76435661315918,8.999999999999999e-08,0.0,0.0,0.0,8.999999999999999e-08,0.0,0.0,0.0,8.999999999999999e-08
1719006861.7335494,77509,1719006861,727738880,base_link,0.02388105434970202,-0.02798611656490344,-0.8549673561201181,-0.5173755881872234,1.0,0.0,0.0,0.0,1.0,0.0,0.0,0.0,1.0,-0.00034763821167871356,-0.0005112199578434228,0.00046837929403409367,1.2184696791468346e-07,0.0,0.0,0.0,1.2184696791468346e-07,0.0,0.0,0.0,1.2184696791468346e-07,-0.6903256177902222,0.23232217133045316,9.781510353088379,8.999999999999999e-08,0.0,0.0,0.0,8.999999999999999e-08,0.0,0.0,0.0,8.999999999999999e-08
1719006861.7401924,77510,1719006861,732738880,base_link,0.023880770023110696,-0.027986142742047634,-0.85496800939627,-0.5173742605614954,1.0,0.0,0.0,0.0,1.0,0.0,0.0,0.0,1.0,-0.000158300856128335,-0.00042458428652025754,0.0003540574107319117,1.2184696791468346e-07,0.0,0.0,0.0,1.2184696791468346e-07,0.0,0.0,0.0,1.2184696791468346e-07,-0.6951100826263428,0.22883622348308683,9.777482032775879,8.999999999999999e-08,0.0,0.0,0.0,8.999999999999999e-08,0.0,0.0,0.0,8.999999999999999e-08
1719006861.745535,77511,1719006861,742738880,base_link,0.023880559288868144,-0.02798641142820689,-0.8549683571077702,-0.5173739128499951,1.0,0.0,0.0,0.0,1.0,0.0,0.0,0.0,1.0,2.4108332581818104e-05,-2.2417880245484385e-05,0.00021940999431535602,1.2184696791468346e-07,0.0,0.0,0.0,1.2184696791468346e-07,0.0,0.0,0.0,1.2184696791468346e-07,-0.6727224588394165,0.22682268917560697,9.784322738647461,8.999999999999999e-08,0.0,0.0,0.0,8.999999999999999e-08,0.0,0.0,0.0,8.999999999999999e-08
1719006861.7564926,77512,1719006861,747738880,base_link,0.023879839499720917,-0.02798643579435368,-0.8549686415989977,-0.5173734597713736,1.0,0.0,0.0,0.0,1.0,0.0,0.0,0.0,1.0,0.00011382129741832614,-6.005138857289936e-07,0.0001740056904964149,1.2184696791468346e-07,0.0,0.0,0.0,1.2184696791468346e-07,0.0,0.0,0.0,1.2184696791468346e-07,-0.6867973208427429,0.23570093512535215,9.789716720581055,8.999999999999999e-08,0.0,0.0,0.0,8.999999999999999e-08,0.0,0.0,0.0,8.999999999999999e-08
1719006861.7600985,77513,1719006861,752738880,base_link,0.023881931695622777,-0.02798716216894599,-0.8549686837458462,-0.5173730804497371,1.0,0.0,0.0,0.0,1.0,0.0,0.0,0.0,1.0,-0.00010016636224463582,0.0003664709802251309,0.00020584068261086935,1.2184696791468346e-07,0.0,0.0,0.0,1.2184696791468346e-07,0.0,0.0,0.0,1.2184696791468346e-07,-0.6863903999328613,0.22915394604206205,9.771775245666504,8.999999999999999e-08,0.0,0.0,0.0,8.999999999999999e-08,0.0,0.0,0.0,8.999999999999999e-08
1719006861.760252,77514,1719006861,757738880,base_link,0.02388355204438467,-0.02798607919250261,-0.8549688417965281,-0.5173729223990551,1.0,0.0,0.0,0.0,1.0,0.0,0.0,0.0,1.0,-0.0003071916289627552,0.0004150792374275625,0.0001517003984190523,1.2184696791468346e-07,0.0,0.0,0.0,1.2184696791468346e-07,0.0,0.0,0.0,1.2184696791468346e-07,-0.6863903999328613,0.22915394604206205,9.771775245666504,8.999999999999999e-08,0.0,0.0,0.0,8.999999999999999e-08,0.0,0.0,0.0,8.999999999999999e-08
1719006861.7664204,77515,1719006861,762738880,base_link,0.023884350694236726,-0.027986213041673858,-0.8549695793663771,-0.5173716790670241,1.0,0.0,0.0,0.0,1.0,0.0,0.0,0.0,1.0,-0.0004925128305330873,0.00033985200570896273,0.0002847220748662948,1.2184696791468346e-07,0.0,0.0,0.0,1.2184696791468346e-07,0.0,0.0,0.0,1.2184696791468346e-07,-0.6765232086181641,0.23517876863479734,9.783506393432617,8.999999999999999e-08,0.0,0.0,0.0,8.999999999999999e-08,0.0,0.0,0.0,8.999999999999999e-08
1719006861.7731042,77516,1719006861,767738880,base_link,0.023882743351728866,-0.027986524368590008,-0.8549706646477262,-0.5173699194360987,1.0,0.0,0.0,0.0,1.0,0.0,0.0,0.0,1.0,4.081142833456397e-05,1.699150379863575e-05,0.0006201161886565387,1.2184696791468346e-07,0.0,0.0,0.0,1.2184696791468346e-07,0.0,0.0,0.0,1.2184696791468346e-07,-0.6858617663383484,0.2105153203010571,9.792315483093262,8.999999999999999e-08,0.0,0.0,0.0,8.999999999999999e-08,0.0,0.0,0.0,8.999999999999999e-08
1719006861.7797923,77517,1719006861,772738880,base_link,0.023883465116509617,-0.027987720285416504,-0.8549710228959385,-0.5173692240130983,1.0,0.0,0.0,0.0,1.0,0.0,0.0,0.0,1.0,-0.00013376737479120493,-0.0003140782937407493,0.0006348969764076173,1.2184696791468346e-07,0.0,0.0,0.0,1.2184696791468346e-07,0.0,0.0,0.0,1.2184696791468346e-07,-0.6824005246162415,0.2176300436258328,9.765009880065918,8.999999999999999e-08,0.0,0.0,0.0,8.999999999999999e-08,0.0,0.0,0.0,8.999999999999999e-08
1719006861.7852237,77518,1719006861,782738880,base_link,0.02388301286106876,-0.02798408956490787,-0.8549713179238781,-0.5173689289851587,1.0,0.0,0.0,0.0,1.0,0.0,0.0,0.0,1.0,-0.0003389263292774558,-0.0004341924504842609,0.00018934340914711362,1.2184696791468346e-07,0.0,0.0,0.0,1.2184696791468346e-07,0.0,0.0,0.0,1.2184696791468346e-07,-0.684200644493103,0.2270568013191235,9.770354270935059,8.999999999999999e-08,0.0,0.0,0.0,8.999999999999999e-08,0.0,0.0,0.0,8.999999999999999e-08
1719006861.7972467,77519,1719006861,787738880,base_link,0.023882424286914748,-0.027981042973377813,-0.854972129250712,-0.5173677804835368,1.0,0.0,0.0,0.0,1.0,0.0,0.0,0.0,1.0,-0.0006579449982382357,-0.00043303429265506566,5.8291479945182855e-05,1.2184696791468346e-07,0.0,0.0,0.0,1.2184696791468346e-07,0.0,0.0,0.0,1.2184696791468346e-07,-0.6855486631393433,0.22247393429279447,9.783267974853516,8.999999999999999e-08,0.0,0.0,0.0,8.999999999999999e-08,0.0,0.0,0.0,8.999999999999999e-08
1719006861.8004797,77520,1719006861,792738880,base_link,0.02388280229146233,-0.027980722920746937,-0.8549722030076968,-0.5173677067265519,1.0,0.0,0.0,0.0,1.0,0.0,0.0,0.0,1.0,-0.0005142386071383953,-0.00023065690766088662,0.00027675146702677017,1.2184696791468346e-07,0.0,0.0,0.0,1.2184696791468346e-07,0.0,0.0,0.0,1.2184696791468346e-07,-0.679492712020874,0.24295304715633512,9.775465965270996,8.999999999999999e-08,0.0,0.0,0.0,8.999999999999999e-08,0.0,0.0,0.0,8.999999999999999e-08
1719006861.8044105,77521,1719006861,797738880,base_link,0.023882478287564405,-0.0279826010896837,-0.854973372582743,-0.5173656942145355,1.0,0.0,0.0,0.0,1.0,0.0,0.0,0.0,1.0,4.654284566640854e-07,0.0001821308978833259,0.0006756532820872962,1.2184696791468346e-07,0.0,0.0,0.0,1.2184696791468346e-07,0.0,0.0,0.0,1.2184696791468346e-07,-0.6658543348312378,0.22429709136486173,9.775620460510254,8.999999999999999e-08,0.0,0.0,0.0,8.999999999999999e-08,0.0,0.0,0.0,8.999999999999999e-08
1719006861.8071055,77522,1719006861,802738880,base_link,0.02388371684514779,-0.027983791244245753,-0.8549738467347887,-0.5173647985940045,1.0,0.0,0.0,0.0,1.0,0.0,0.0,0.0,1.0,0.0002728895633481443,0.0003300909011159093,0.0005712470156140625,1.2184696791468346e-07,0.0,0.0,0.0,1.2184696791468346e-07,0.0,0.0,0.0,1.2184696791468346e-07,-0.6658543348312378,0.22429709136486173,9.775620460510254,8.999999999999999e-08,0.0,0.0,0.0,8.999999999999999e-08,0.0,0.0,0.0,8.999999999999999e-08
1719006861.8133607,77523,1719006861,807738880,base_link,0.023880703674751518,-0.027988427068309694,-0.8549727614534396,-0.5173663053438389,1.0,0.0,0.0,0.0,1.0,0.0,0.0,0.0,1.0,0.0010738233104348183,7.76336892158724e-05,-0.00028792425291612744,1.2184696791468346e-07,0.0,0.0,0.0,1.2184696791468346e-07,0.0,0.0,0.0,1.2184696791468346e-07,-0.6940891742706299,0.22322642803192258,9.787101745605469,8.999999999999999e-08,0.0,0.0,0.0,8.999999999999999e-08,0.0,0.0,0.0,8.999999999999999e-08
1719006861.8204286,77524,1719006861,812738880,base_link,0.02388062020423513,-0.02798793101965906,-0.8549718658329087,-0.51736804390134,1.0,0.0,0.0,0.0,1.0,0.0,0.0,0.0,1.0,0.0007479636115022004,4.4487718696473126e-05,-0.00032333831768482924,1.2184696791468346e-07,0.0,0.0,0.0,1.2184696791468346e-07,0.0,0.0,0.0,1.2184696791468346e-07,-0.6930568218231201,0.23705357313156247,9.775527954101562,8.999999999999999e-08,0.0,0.0,0.0,8.999999999999999e-08,0.0,0.0,0.0,8.999999999999999e-08
1719006861.8258395,77525,1719006861,817738880,base_link,0.02387954825841226,-0.027989629899853527,-0.8549722978381059,-0.5173670218402635,1.0,0.0,0.0,0.0,1.0,0.0,0.0,0.0,1.0,0.00028082338394597173,0.00015587559028062967,-0.00016466388478875163,1.2184696791468346e-07,0.0,0.0,0.0,1.2184696791468346e-07,0.0,0.0,0.0,1.2184696791468346e-07,-0.6910746097564697,0.21420012414455533,9.78775405883789,8.999999999999999e-08,0.0,0.0,0.0,8.999999999999999e-08,0.0,0.0,0.0,8.999999999999999e-08
1719006861.8336642,77526,1719006861,827738880,base_link,0.023881456885032522,-0.027991856932743395,-0.8549717183189389,-0.5173680228279157,1.0,0.0,0.0,0.0,1.0,0.0,0.0,0.0,1.0,0.00023357378086075187,0.00047309248475357885,-0.00024370770552195614,1.2184696791468346e-07,0.0,0.0,0.0,1.2184696791468346e-07,0.0,0.0,0.0,1.2184696791468346e-07,-0.6869828104972839,0.23162110149860501,9.783794403076172,8.999999999999999e-08,0.0,0.0,0.0,8.999999999999999e-08,0.0,0.0,0.0,8.999999999999999e-08
1719006861.8378563,77527,1719006861,832738880,base_link,0.023880141113105574,-0.027990770334305224,-0.8549719290531814,-0.517367559212582,1.0,0.0,0.0,0.0,1.0,0.0,0.0,0.0,1.0,0.00012823444558307528,-0.00010154036863241345,-7.018097676336641e-07,1.2184696791468346e-07,0.0,0.0,0.0,1.2184696791468346e-07,0.0,0.0,0.0,1.2184696791468346e-07,-0.6824190020561218,0.23096334934234738,9.780619621276855,8.999999999999999e-08,0.0,0.0,0.0,8.999999999999999e-08,0.0,0.0,0.0,8.999999999999999e-08
1719006861.8427644,77528,1719006861,837738880,base_link,0.0238785964969621,-0.02799085561581901,-0.8549717077822269,-0.5173680333646279,1.0,0.0,0.0,0.0,1.0,0.0,0.0,0.0,1.0,8.023838745430112e-05,-0.0005073535721749067,-9.91580018308013e-05,1.2184696791468346e-07,0.0,0.0,0.0,1.2184696791468346e-07,0.0,0.0,0.0,1.2184696791468346e-07,-0.6892995238304138,0.24206720292568326,9.779991149902344,8.999999999999999e-08,0.0,0.0,0.0,8.999999999999999e-08,0.0,0.0,0.0,8.999999999999999e-08
1719006861.8491647,77529,1719006861,842738880,base_link,0.023877614936372953,-0.02798915558317165,-0.854971813149348,-0.5173680122912035,1.0,0.0,0.0,0.0,1.0,0.0,0.0,0.0,1.0,-5.7030993048101664e-05,-0.0006530487444251776,0.00031920749461278325,1.2184696791468346e-07,0.0,0.0,0.0,1.2184696791468346e-07,0.0,0.0,0.0,1.2184696791468346e-07,-0.6869432926177979,0.22730158269405484,9.759180068969727,8.999999999999999e-08,0.0,0.0,0.0,8.999999999999999e-08,0.0,0.0,0.0,8.999999999999999e-08
1719006861.855263,77530,1719006861,847738880,base_link,0.023876616418262723,-0.02798877906034921,-0.8549734884865764,-0.517365409723308,1.0,0.0,0.0,0.0,1.0,0.0,0.0,0.0,1.0,-1.8966151401400566e-05,-0.0008096009260043501,0.0006461236043833197,1.2184696791468346e-07,0.0,0.0,0.0,1.2184696791468346e-07,0.0,0.0,0.0,1.2184696791468346e-07,-0.6790285706520081,0.24312423169613004,9.774529457092285,8.999999999999999e-08,0.0,0.0,0.0,8.999999999999999e-08,0.0,0.0,0.0,8.999999999999999e-08
1719006861.8594215,77531,1719006861,852738368,base_link,0.023872418032388206,-0.0279892790602669,-0.8549741733728646,-0.5173644719559286,1.0,0.0,0.0,0.0,1.0,0.0,0.0,0.0,1.0,0.00042085425229743123,-0.0008540040580555796,0.0005886309663765134,1.2184696791468346e-07,0.0,0.0,0.0,1.2184696791468346e-07,0.0,0.0,0.0,1.2184696791468346e-07,-0.6868681311607361,0.2323952168226254,9.780882835388184,8.999999999999999e-08,0.0,0.0,0.0,8.999999999999999e-08,0.0,0.0,0.0,8.999999999999999e-08
1719006861.865369,77532,1719006861,857738368,base_link,0.02387165560248409,-0.027991495556444642,-0.8549735095600006,-0.5173653043561867,1.0,0.0,0.0,0.0,1.0,0.0,0.0,0.0,1.0,0.0005844440893270075,-0.00029295816784724593,2.7033034712076224e-05,1.2184696791468346e-07,0.0,0.0,0.0,1.2184696791468346e-07,0.0,0.0,0.0,1.2184696791468346e-07,-0.6858116388320923,0.23249439895153165,9.78754997253418,8.999999999999999e-08,0.0,0.0,0.0,8.999999999999999e-08,0.0,0.0,0.0,8.999999999999999e-08
1719006861.8709874,77533,1719006861,862738368,base_link,0.02387328187814655,-0.027992440238541343,-0.8549733515093187,-0.5173654624068686,1.0,0.0,0.0,0.0,1.0,0.0,0.0,0.0,1.0,0.0004582269466482103,0.0004508249985519796,-0.0002608828071970493,1.2184696791468346e-07,0.0,0.0,0.0,1.2184696791468346e-07,0.0,0.0,0.0,1.2184696791468346e-07,-0.686610758304596,0.22910167276859403,9.784306526184082,8.999999999999999e-08,0.0,0.0,0.0,8.999999999999999e-08,0.0,0.0,0.0,8.999999999999999e-08
1719006861.879543,77534,1719006861,872738368,base_link,0.023874119546760705,-0.02798967961996388,-0.8549720238835906,-0.5173678015569609,1.0,0.0,0.0,0.0,1.0,0.0,0.0,0.0,1.0,-0.0004933361196890473,4.022575740236783e-05,-0.00048121315194293857,1.2184696791468346e-07,0.0,0.0,0.0,1.2184696791468346e-07,0.0,0.0,0.0,1.2184696791468346e-07,-0.6711287498474121,0.22747330367565274,9.784218788146973,8.999999999999999e-08,0.0,0.0,0.0,8.999999999999999e-08,0.0,0.0,0.0,8.999999999999999e-08
1719006861.8840005,77535,1719006861,877738368,base_link,0.023872441575354366,-0.02798931346921744,-0.8549721503241361,-0.5173676751164155,1.0,0.0,0.0,0.0,1.0,0.0,0.0,0.0,1.0,-0.0003661455702967942,-0.00034637068165466195,-0.00031222499092109496,1.2184696791468346e-07,0.0,0.0,0.0,1.2184696791468346e-07,0.0,0.0,0.0,1.2184696791468346e-07,-0.6780807375907898,0.2144092470407498,9.769731521606445,8.999999999999999e-08,0.0,0.0,0.0,8.999999999999999e-08,0.0,0.0,0.0,8.999999999999999e-08
1719006861.890424,77536,1719006861,882738368,base_link,0.023872978453764498,-0.027990836518028278,-0.8549715918783934,-0.5173684864432493,1.0,0.0,0.0,0.0,1.0,0.0,0.0,0.0,1.0,0.0003347048186697066,-5.706037336494775e-05,-0.00013484570081345737,1.2184696791468346e-07,0.0,0.0,0.0,1.2184696791468346e-07,0.0,0.0,0.0,1.2184696791468346e-07,-0.677681565284729,0.2189515233039868,9.790374755859375,8.999999999999999e-08,0.0,0.0,0.0,8.999999999999999e-08,0.0,0.0,0.0,8.999999999999999e-08
1719006861.8951674,77537,1719006861,887738368,base_link,0.023872285171033722,-0.02799399012304088,-0.8549718658329087,-0.517368128195037,1.0,0.0,0.0,0.0,1.0,0.0,0.0,0.0,1.0,0.0006126532680355012,0.0001614821667317301,8.578132838010787e-05,1.2184696791468346e-07,0.0,0.0,0.0,1.2184696791468346e-07,0.0,0.0,0.0,1.2184696791468346e-07,-0.6869094967842102,0.23421424627304196,9.793905258178711,8.999999999999999e-08,0.0,0.0,0.0,8.999999999999999e-08,0.0,0.0,0.0,8.999999999999999e-08
1719006861.8995066,77538,1719006861,892738368,base_link,0.023871794061466892,-0.02799264257634142,-0.8549721503241361,-0.5173675065290214,1.0,0.0,0.0,0.0,1.0,0.0,0.0,0.0,1.0,0.0004562388057820499,-0.00019366215565241873,6.971106631681326e-05,1.2184696791468346e-07,0.0,0.0,0.0,1.2184696791468346e-07,0.0,0.0,0.0,1.2184696791468346e-07,-0.6857974529266357,0.2192864567041409,9.774447441101074,8.999999999999999e-08,0.0,0.0,0.0,8.999999999999999e-08,0.0,0.0,0.0,8.999999999999999e-08
1719006861.9085891,77539,1719006861,897738368,base_link,0.023869453429649395,-0.027992054002187412,-0.8549715391948328,-0.517368876301598,1.0,0.0,0.0,0.0,1.0,0.0,0.0,0.0,1.0,2.6119756512343884e-05,-0.00047086479025892913,-0.00014149033813737327,1.2184696791468346e-07,0.0,0.0,0.0,1.2184696791468346e-07,0.0,0.0,0.0,1.2184696791468346e-07,-0.6747949123382568,0.21945831179618955,9.788591384887695,8.999999999999999e-08,0.0,0.0,0.0,8.999999999999999e-08,0.0,0.0,0.0,8.999999999999999e-08
1719006861.9120092,77540,1719006861,907738368,base_link,0.0238689155634225,-0.02799349802565729,-0.8549720238835906,-0.5173680544380521,1.0,0.0,0.0,0.0,1.0,0.0,0.0,0.0,1.0,0.0001420670305378735,-0.00013331415539141744,5.23868948221223e-07,1.2184696791468346e-07,0.0,0.0,0.0,1.2184696791468346e-07,0.0,0.0,0.0,1.2184696791468346e-07,-0.6932490468025208,0.21925166249275327,9.78824520111084,8.999999999999999e-08,0.0,0.0,0.0,8.999999999999999e-08,0.0,0.0,0.0,8.999999999999999e-08
1719006861.918903,77541,1719006861,912738368,base_link,0.023865032291095052,-0.02799252914204992,-0.8549720133468786,-0.5173682335621582,1.0,0.0,0.0,0.0,1.0,0.0,0.0,0.0,1.0,0.00042305124225094914,-0.0007769219810143113,0.00013654265785589825,1.2184696791468346e-07,0.0,0.0,0.0,1.2184696791468346e-07,0.0,0.0,0.0,1.2184696791468346e-07,-0.6785621643066406,0.23258058726787686,9.778637886047363,8.999999999999999e-08,0.0,0.0,0.0,8.999999999999999e-08,0.0,0.0,0.0,8.999999999999999e-08
1719006861.9234378,77542,1719006861,917738368,base_link,0.02386316597595943,-0.027993157393510538,-0.8549713600707266,-0.5173691397194012,1.0,0.0,0.0,0.0,1.0,0.0,0.0,0.0,1.0,0.0004353396943770349,-0.0005606701597571373,-0.00019896851154044262,1.2184696791468346e-07,0.0,0.0,0.0,1.2184696791468346e-07,0.0,0.0,0.0,1.2184696791468346e-07,-0.6830227971076965,0.22209347784519315,9.793545722961426,8.999999999999999e-08,0.0,0.0,0.0,8.999999999999999e-08,0.0,0.0,0.0,8.999999999999999e-08
1719006861.9307492,77543,1719006861,922738368,base_link,0.023865573614680616,-0.027994748437041823,-0.854970569817317,-0.51737052002869,1.0,0.0,0.0,0.0,1.0,0.0,0.0,0.0,1.0,0.0003095048596151173,0.0002471595071256161,-0.00021076289704069498,1.2184696791468346e-07,0.0,0.0,0.0,1.2184696791468346e-07,0.0,0.0,0.0,1.2184696791468346e-07,-0.69168621301651,0.23438556492328763,9.778043746948242,8.999999999999999e-08,0.0,0.0,0.0,8.999999999999999e-08,0.0,0.0,0.0,8.999999999999999e-08
1719006861.9350774,77544,1719006861,927738368,base_link,0.023865251092507832,-0.027995476622631525,-0.8549707805515596,-0.5173699721196593,1.0,0.0,0.0,0.0,1.0,0.0,0.0,0.0,1.0,0.0002982349251396954,3.626020043157039e-05,-0.00015147961676120758,1.2184696791468346e-07,0.0,0.0,0.0,1.2184696791468346e-07,0.0,0.0,0.0,1.2184696791468346e-07,-0.6770614385604858,0.2376350164413464,9.77638053894043,8.999999999999999e-08,0.0,0.0,0.0,8.999999999999999e-08,0.0,0.0,0.0,8.999999999999999e-08
1719006861.9396443,77545,1719006861,932738368,base_link,0.023863381155377412,-0.02799684079757981,-0.8549710861162112,-0.5173695822613106,1.0,0.0,0.0,0.0,1.0,0.0,0.0,0.0,1.0,0.0006527949008159339,-5.463151319418102e-05,3.998418105766178e-05,1.2184696791468346e-07,0.0,0.0,0.0,1.2184696791468346e-07,0.0,0.0,0.0,1.2184696791468346e-07,-0.6792256236076355,0.23552630841732144,9.778170585632324,8.999999999999999e-08,0.0,0.0,0.0,8.999999999999999e-08,0.0,0.0,0.0,8.999999999999999e-08
1719006861.948434,77546,1719006861,937738368,base_link,0.023860363869077965,-0.027998135331446378,-0.8549712757770296,-0.5173693083067953,1.0,0.0,0.0,0.0,1.0,0.0,0.0,0.0,1.0,0.0008273542043752968,-0.0005060558905825019,8.951395284384496e-05,1.2184696791468346e-07,0.0,0.0,0.0,1.2184696791468346e-07,0.0,0.0,0.0,1.2184696791468346e-07,-0.6860899925231934,0.22883088886737943,9.783939361572266,8.999999999999999e-08,0.0,0.0,0.0,8.999999999999999e-08,0.0,0.0,0.0,8.999999999999999e-08
1719006861.9502945,77547,1719006861,942738368,base_link,0.023858588762356695,-0.027998156075598378,-0.8549710966529234,-0.5173697403119925,1.0,0.0,0.0,0.0,1.0,0.0,0.0,0.0,1.0,0.0007824770291335881,-0.0006220225477591157,0.00011661916505545386,1.2184696791468346e-07,0.0,0.0,0.0,1.2184696791468346e-07,0.0,0.0,0.0,1.2184696791468346e-07,-0.6952306628227234,0.23340769112110257,9.801322937011719,8.999999999999999e-08,0.0,0.0,0.0,8.999999999999999e-08,0.0,0.0,0.0,8.999999999999999e-08
1719006861.959538,77548,1719006861,952738368,base_link,0.02385402587209701,-0.028000316595492944,-0.8549709175288172,-0.5173700880234927,1.0,0.0,0.0,0.0,1.0,0.0,0.0,0.0,1.0,0.0007652820204384625,-0.0006064206827431917,2.427457366138704e-05,1.2184696791468346e-07,0.0,0.0,0.0,1.2184696791468346e-07,0.0,0.0,0.0,1.2184696791468346e-07,-0.6976228952407837,0.22026136517524839,9.76687240600586,8.999999999999999e-08,0.0,0.0,0.0,8.999999999999999e-08,0.0,0.0,0.0,8.999999999999999e-08
1719006861.9643402,77549,1719006861,957739136,base_link,0.02385048899418076,-0.027998579848989267,-0.8549719501266058,-0.5173685496635221,1.0,0.0,0.0,0.0,1.0,0.0,0.0,0.0,1.0,5.957228131592274e-05,-0.0010840436443686485,0.0002445498830638827,1.2184696791468346e-07,0.0,0.0,0.0,1.2184696791468346e-07,0.0,0.0,0.0,1.2184696791468346e-07,-0.6811379194259644,0.21910133957862973,9.78329849243164,8.999999999999999e-08,0.0,0.0,0.0,8.999999999999999e-08,0.0,0.0,0.0,8.999999999999999e-08
1719006861.9703274,77550,1719006861,962739136,base_link,0.023850843949670564,-0.027996960488044134,-0.8549724453520757,-0.5173679701443551,1.0,0.0,0.0,0.0,1.0,0.0,0.0,0.0,1.0,-0.00020654004765674472,-0.0007120714290067554,0.00011596479453146466,1.2184696791468346e-07,0.0,0.0,0.0,1.2184696791468346e-07,0.0,0.0,0.0,1.2184696791468346e-07,-0.6922348737716675,0.22824269533157468,9.785913467407227,8.999999999999999e-08,0.0,0.0,0.0,8.999999999999999e-08,0.0,0.0,0.0,8.999999999999999e-08
1719006861.9766164,77551,1719006861,967739136,base_link,0.0238502794123911,-0.027997430194914456,-0.854971233630181,-0.5173697719221289,1.0,0.0,0.0,0.0,1.0,0.0,0.0,0.0,1.0,0.00011096178786829114,-0.00034426699858158827,-3.93097870983183e-05,1.2184696791468346e-07,0.0,0.0,0.0,1.2184696791468346e-07,0.0,0.0,0.0,1.2184696791468346e-07,-0.682313084602356,0.22541798651218534,9.767992973327637,8.999999999999999e-08,0.0,0.0,0.0,8.999999999999999e-08,0.0,0.0,0.0,8.999999999999999e-08
1719006861.9806786,77552,1719006861,972739136,base_link,0.02384813996592079,-0.027998326309353692,-0.8549720028101664,-0.5173685812736585,1.0,0.0,0.0,0.0,1.0,0.0,0.0,0.0,1.0,0.00033278000773862004,-0.00037944255745969713,5.5292912293225574e-05,1.2184696791468346e-07,0.0,0.0,0.0,1.2184696791468346e-07,0.0,0.0,0.0,1.2184696791468346e-07,-0.6976017951965332,0.21313713490963102,9.784648895263672,8.999999999999999e-08,0.0,0.0,0.0,8.999999999999999e-08,0.0,0.0,0.0,8.999999999999999e-08
1719006861.9853706,77553,1719006861,977739136,base_link,0.023847507598557,-0.027999411755338974,-0.8549724348153636,-0.5173678963873701,1.0,0.0,0.0,0.0,1.0,0.0,0.0,0.0,1.0,0.00040246808202937245,-0.000510977697558701,0.0002867525327019394,1.2184696791468346e-07,0.0,0.0,0.0,1.2184696791468346e-07,0.0,0.0,0.0,1.2184696791468346e-07,-0.6919907927513123,0.21851077675819516,9.76784896850586,8.999999999999999e-08,0.0,0.0,0.0,8.999999999999999e-08,0.0,0.0,0.0,8.999999999999999e-08
1719006861.990468,77554,1719006861,982739136,base_link,0.023845238418818616,-0.02799732400461254,-0.854973372582743,-0.5173665371515057,1.0,0.0,0.0,0.0,1.0,0.0,0.0,0.0,1.0,6.977753946557641e-05,-0.000525158829987049,0.000547085946891457,1.2184696791468346e-07,0.0,0.0,0.0,1.2184696791468346e-07,0.0,0.0,0.0,1.2184696791468346e-07,-0.6766758561134338,0.21891811490059018,9.795770645141602,8.999999999999999e-08,0.0,0.0,0.0,8.999999999999999e-08,0.0,0.0,0.0,8.999999999999999e-08
1719006861.9986448,77555,1719006861,992739136,base_link,0.023841799993306313,-0.027997922786206428,-0.8549725191090606,-0.5173679806810672,1.0,0.0,0.0,0.0,1.0,0.0,0.0,0.0,1.0,0.00033110874937847257,-0.0006525765638798475,-9.447883348911993e-05,1.2184696791468346e-07,0.0,0.0,0.0,1.2184696791468346e-07,0.0,0.0,0.0,1.2184696791468346e-07,-0.6896495223045349,0.23600798845291257,9.792180061340332,8.999999999999999e-08,0.0,0.0,0.0,8.999999999999999e-08,0.0,0.0,0.0,8.999999999999999e-08
1719006862.0030813,77556,1719006861,997739136,base_link,0.02384107839316169,-0.02799695324405455,-0.8549732145320611,-0.5173669480832787,1.0,0.0,0.0,0.0,1.0,0.0,0.0,0.0,1.0,-5.0518778152763844e-05,-0.0003940086462534964,9.560823673382407e-05,1.2184696791468346e-07,0.0,0.0,0.0,1.2184696791468346e-07,0.0,0.0,0.0,1.2184696791468346e-07,-0.6809837818145752,0.22684623301029325,9.763161659240723,8.999999999999999e-08,0.0,0.0,0.0,8.999999999999999e-08,0.0,0.0,0.0,8.999999999999999e-08
1719006862.0124226,77557,1719006862,2739136,base_link,0.023842720473892343,-0.027995247943051128,-0.8549742682032738,-0.5173652200624896,1.0,0.0,0.0,0.0,1.0,0.0,0.0,0.0,1.0,-0.0004200370458420366,-0.00020912080071866507,0.0005162128363735974,1.2184696791468346e-07,0.0,0.0,0.0,1.2184696791468346e-07,0.0,0.0,0.0,1.2184696791468346e-07,-0.6853876709938049,0.23035013675689817,9.800782203674316,8.999999999999999e-08,0.0,0.0,0.0,8.999999999999999e-08,0.0,0.0,0.0,8.999999999999999e-08
1719006862.0146713,77558,1719006862,7739136,base_link,0.023840466605313772,-0.027995109977976704,-0.8549746896717589,-0.5173646300066105,1.0,0.0,0.0,0.0,1.0,0.0,0.0,0.0,1.0,-4.6625558752566576e-05,-0.0007326959166675806,0.00023310037795454272,1.2184696791468346e-07,0.0,0.0,0.0,1.2184696791468346e-07,0.0,0.0,0.0,1.2184696791468346e-07,-0.6954122185707092,0.2328585833311093,9.792101860046387,8.999999999999999e-08,0.0,0.0,0.0,8.999999999999999e-08,0.0,0.0,0.0,8.999999999999999e-08
1719006862.0220702,77559,1719006862,12739136,base_link,0.023837891367015307,-0.027994255516477596,-0.8549742998134102,-0.5173654413334444,1.0,0.0,0.0,0.0,1.0,0.0,0.0,0.0,1.0,-5.812261952087283e-05,-0.0007718100678175688,4.901859210804114e-05,1.2184696791468346e-07,0.0,0.0,0.0,1.2184696791468346e-07,0.0,0.0,0.0,1.2184696791468346e-07,-0.6964146494865417,0.21549685299396634,9.778783798217773,8.999999999999999e-08,0.0,0.0,0.0,8.999999999999999e-08,0.0,0.0,0.0,8.999999999999999e-08
1719006862.0254488,77560,1719006862,17739136,base_link,0.023836888733001903,-0.027992629240815133,-0.854974773965456,-0.5173647985940046,1.0,0.0,0.0,0.0,1.0,0.0,0.0,0.0,1.0,0.00010796386050060391,-0.0006910001393407583,0.00022042630007490524,1.2184696791468346e-07,0.0,0.0,0.0,1.2184696791468346e-07,0.0,0.0,0.0,1.2184696791468346e-07,-0.6710991859436035,0.21246425807476163,9.769399642944336,8.999999999999999e-08,0.0,0.0,0.0,8.999999999999999e-08,0.0,0.0,0.0,8.999999999999999e-08
1719006862.0316846,77561,1719006862,27739136,base_link,0.023838546454164625,-0.02799377428507839,-0.8549754693884564,-0.517363513115125,1.0,0.0,0.0,0.0,1.0,0.0,0.0,0.0,1.0,-1.606304431334138e-05,2.182922253268774e-05,0.0002419829834252596,1.2184696791468346e-07,0.0,0.0,0.0,1.2184696791468346e-07,0.0,0.0,0.0,1.2184696791468346e-07,-0.6875795125961304,0.23070982098579526,9.78270435333252,8.999999999999999e-08,0.0,0.0,0.0,8.999999999999999e-08,0.0,0.0,0.0,8.999999999999999e-08
1719006862.0397975,77562,1719006862,32739136,base_link,0.023838934172243698,-0.02799350247083272,-0.854975595829002,-0.5173633023808825,1.0,0.0,0.0,0.0,1.0,0.0,0.0,0.0,1.0,-0.00020971981575712562,0.00023292934929486367,0.00020946422591805455,1.2184696791468346e-07,0.0,0.0,0.0,1.2184696791468346e-07,0.0,0.0,0.0,1.2184696791468346e-07,-0.6797290444374084,0.22251798212528348,9.76308822631836,8.999999999999999e-08,0.0,0.0,0.0,8.999999999999999e-08,0.0,0.0,0.0,8.999999999999999e-08
1719006862.0441334,77563,1719006862,37739136,base_link,0.023838337366283338,-0.027993150972701584,-0.8549748898692894,-0.5173646826901712,1.0,0.0,0.0,0.0,1.0,0.0,0.0,0.0,1.0,-8.359644562005997e-05,5.8139710745308514e-05,-0.0002943935978692025,1.2184696791468346e-07,0.0,0.0,0.0,1.2184696791468346e-07,0.0,0.0,0.0,1.2184696791468346e-07,-0.6769800782203674,0.22583313286304593,9.802530288696289,8.999999999999999e-08,0.0,0.0,0.0,8.999999999999999e-08,0.0,0.0,0.0,8.999999999999999e-08
1719006862.0500786,77564,1719006862,42739136,base_link,0.02384029686546684,-0.027993693942648414,-0.854975111140244,-0.5173642085381254,1.0,0.0,0.0,0.0,1.0,0.0,0.0,0.0,1.0,0.0001475867466069758,0.00010563925752649082,-8.049589814618231e-05,1.2184696791468346e-07,0.0,0.0,0.0,1.2184696791468346e-07,0.0,0.0,0.0,1.2184696791468346e-07,-0.6757071614265442,0.23487591743469358,9.771440505981445,8.999999999999999e-08,0.0,0.0,0.0,8.999999999999999e-08,0.0,0.0,0.0,8.999999999999999e-08
1719006862.0536237,77565,1719006862,47739136,base_link,0.02383765708980659,-0.027994705796284932,-0.8549749214794258,-0.5173643981989438,1.0,0.0,0.0,0.0,1.0,0.0,0.0,0.0,1.0,0.0003040606970898807,-9.250007860828192e-05,-7.749273208901285e-05,1.2184696791468346e-07,0.0,0.0,0.0,1.2184696791468346e-07,0.0,0.0,0.0,1.2184696791468346e-07,-0.692568838596344,0.22666668891906858,9.780291557312012,8.999999999999999e-08,0.0,0.0,0.0,8.999999999999999e-08,0.0,0.0,0.0,8.999999999999999e-08
1719006862.062304,77566,1719006862,52738880,base_link,0.02383620779798065,-0.027995475470178634,-0.8549751954339411,-0.5173640399507314,1.0,0.0,0.0,0.0,1.0,0.0,0.0,0.0,1.0,0.00030628725653514266,-0.000313293479848653,0.00023076735669746998,1.2184696791468346e-07,0.0,0.0,0.0,1.2184696791468346e-07,0.0,0.0,0.0,1.2184696791468346e-07,-0.7052593231201172,0.20220081508159757,9.773350715637207,8.999999999999999e-08,0.0,0.0,0.0,8.999999999999999e-08,0.0,0.0,0.0,8.999999999999999e-08
1719006862.0653076,77567,1719006862,57738880,base_link,0.023837901739091307,-0.02799405021522723,-0.854976259641866,-0.5173623013932304,1.0,0.0,0.0,0.0,1.0,0.0,0.0,0.0,1.0,-0.0001273921225219965,-0.00012135024007875467,0.0004717724514193833,1.2184696791468346e-07,0.0,0.0,0.0,1.2184696791468346e-07,0.0,0.0,0.0,1.2184696791468346e-07,-0.6966708898544312,0.22716261446476102,9.80475902557373,8.999999999999999e-08,0.0,0.0,0.0,8.999999999999999e-08,0.0,0.0,0.0,8.999999999999999e-08
1719006862.0701537,77568,1719006862,62738880,base_link,0.02383763321756818,-0.027994650643182385,-0.8549767127204875,-0.5173615111398208,1.0,0.0,0.0,0.0,1.0,0.0,0.0,0.0,1.0,-0.00016043579671531916,0.00015307861031033107,0.0006709485896863043,1.2184696791468346e-07,0.0,0.0,0.0,1.2184696791468346e-07,0.0,0.0,0.0,1.2184696791468346e-07,-0.6914696097373962,0.22733446955680967,9.798739433288574,8.999999999999999e-08,0.0,0.0,0.0,8.999999999999999e-08,0.0,0.0,0.0,8.999999999999999e-08
1719006862.0799534,77569,1719006862,72738880,base_link,0.023838703517029776,-0.027994122984395364,-0.8549789465034585,-0.5173577600703033,1.0,0.0,0.0,0.0,1.0,0.0,0.0,0.0,1.0,-0.00025491340784356,9.284586121793846e-05,0.0007344174082390964,1.2184696791468346e-07,0.0,0.0,0.0,1.2184696791468346e-07,0.0,0.0,0.0,1.2184696791468346e-07,-0.679622232913971,0.23142647743225217,9.773908615112305,8.999999999999999e-08,0.0,0.0,0.0,8.999999999999999e-08,0.0,0.0,0.0,8.999999999999999e-08
1719006862.08396,77570,1719006862,77738880,base_link,0.0238411248205495,-0.02799335067632363,-0.8549786093286705,-0.5173582658324855,1.0,0.0,0.0,0.0,1.0,0.0,0.0,0.0,1.0,-0.0003232055460102856,0.0004962598904967308,0.0002914289943873882,1.2184696791468346e-07,0.0,0.0,0.0,1.2184696791468346e-07,0.0,0.0,0.0,1.2184696791468346e-07,-0.6767948269844055,0.22112534940242887,9.77357292175293,8.999999999999999e-08,0.0,0.0,0.0,8.999999999999999e-08,0.0,0.0,0.0,8.999999999999999e-08
1719006862.089948,77571,1719006862,82738880,base_link,0.02384223068141453,-0.027995537537998515,-0.8549792415313981,-0.5173571278675756,1.0,0.0,0.0,0.0,1.0,0.0,0.0,0.0,1.0,8.920038817450404e-05,0.0005473031196743251,0.0004842363414354622,1.2184696791468346e-07,0.0,0.0,0.0,1.2184696791468346e-07,0.0,0.0,0.0,1.2184696791468346e-07,-0.6723026633262634,0.232696056365968,9.795597076416016,8.999999999999999e-08,0.0,0.0,0.0,8.999999999999999e-08,0.0,0.0,0.0,8.999999999999999e-08
1719006862.0929422,77572,1719006862,87738880,base_link,0.023840834237785356,-0.027996117386437792,-0.8549803478861715,-0.5173553471632261,1.0,0.0,0.0,0.0,1.0,0.0,0.0,0.0,1.0,9.44074708968401e-05,0.0002475630026310683,0.000537628133315593,1.2184696791468346e-07,0.0,0.0,0.0,1.2184696791468346e-07,0.0,0.0,0.0,1.2184696791468346e-07,-0.6882099509239197,0.225564628839494,9.785662651062012,8.999999999999999e-08,0.0,0.0,0.0,8.999999999999999e-08,0.0,0.0,0.0,8.999999999999999e-08
1719006862.0992782,77573,1719006862,92738880,base_link,0.02384035399420291,-0.027993452421450113,-0.8549796735365953,-0.5173566115686813,1.0,0.0,0.0,0.0,1.0,0.0,0.0,0.0,1.0,-0.00015940883895382285,-0.00012066269118804483,7.162033580243589e-05,1.2184696791468346e-07,0.0,0.0,0.0,1.2184696791468346e-07,0.0,0.0,0.0,1.2184696791468346e-07,-0.6804914474487305,0.21825461089611173,9.775948524475098,8.999999999999999e-08,0.0,0.0,0.0,8.999999999999999e-08,0.0,0.0,0.0,8.999999999999999e-08
1719006862.1050766,77574,1719006862,97738880,base_link,0.023843491958783446,-0.027994392164463006,-0.8549787463059282,-0.5173579602678338,1.0,0.0,0.0,0.0,1.0,0.0,0.0,0.0,1.0,-0.0002926830784417689,0.00044494733447208995,-0.00031849299557507044,1.2184696791468346e-07,0.0,0.0,0.0,1.2184696791468346e-07,0.0,0.0,0.0,1.2184696791468346e-07,-0.6915068030357361,0.22306148707866788,9.787962913513184,8.999999999999999e-08,0.0,0.0,0.0,8.999999999999999e-08,0.0,0.0,0.0,8.999999999999999e-08
1719006862.110369,77575,1719006862,102738880,base_link,0.023844826334592745,-0.02799510191080648,-0.8549791361642768,-0.5173571489409998,1.0,0.0,0.0,0.0,1.0,0.0,0.0,0.0,1.0,-0.00014516100054606795,0.0005911729531362653,-5.9535726904869154e-05,1.2184696791468346e-07,0.0,0.0,0.0,1.2184696791468346e-07,0.0,0.0,0.0,1.2184696791468346e-07,-0.687876284122467,0.2378515601158154,9.777426719665527,8.999999999999999e-08,0.0,0.0,0.0,8.999999999999999e-08,0.0,0.0,0.0,8.999999999999999e-08
1719006862.119679,77576,1719006862,112738880,base_link,0.023845431701631708,-0.027996914719200832,-0.8549803478861715,-0.517355009988438,1.0,0.0,0.0,0.0,1.0,0.0,0.0,0.0,1.0,0.000106309715192765,0.0003573473659344018,0.0004642971907742321,1.2184696791468346e-07,0.0,0.0,0.0,1.2184696791468346e-07,0.0,0.0,0.0,1.2184696791468346e-07,-0.684237539768219,0.22693052887916684,9.75968074798584,8.999999999999999e-08,0.0,0.0,0.0,8.999999999999999e-08,0.0,0.0,0.0,8.999999999999999e-08
1719006862.1230912,77577,1719006862,117738880,base_link,0.023843827487210263,-0.02799502601355194,-0.8549805796938383,-0.5173549467681652,1.0,0.0,0.0,0.0,1.0,0.0,0.0,0.0,1.0,8.443731348961592e-05,-0.0002801535010803491,0.00017224310431629422,1.2184696791468346e-07,0.0,0.0,0.0,1.2184696791468346e-07,0.0,0.0,0.0,1.2184696791468346e-07,-0.6793116927146912,0.2170814722776425,9.774441719055176,8.999999999999999e-08,0.0,0.0,0.0,8.999999999999999e-08,0.0,0.0,0.0,8.999999999999999e-08
1719006862.130372,77578,1719006862,122738880,base_link,0.023843893012388807,-0.027994818242759668,-0.8549794628023528,-0.5173567380092269,1.0,0.0,0.0,0.0,1.0,0.0,0.0,0.0,1.0,1.6156292986124754e-05,-0.00015351524052675816,-0.000159262417582795,1.2184696791468346e-07,0.0,0.0,0.0,1.2184696791468346e-07,0.0,0.0,0.0,1.2184696791468346e-07,-0.6874949932098389,0.22294171154499173,9.785984992980957,8.999999999999999e-08,0.0,0.0,0.0,8.999999999999999e-08,0.0,0.0,0.0,8.999999999999999e-08
1719006862.1365232,77579,1719006862,127738880,base_link,0.023844937793250722,-0.02799651827540703,-0.8549793679719436,-0.5173567485459389,1.0,0.0,0.0,0.0,1.0,0.0,0.0,0.0,1.0,0.00015417620306834579,3.0348794098244956e-05,-0.00018624155200086534,1.2184696791468346e-07,0.0,0.0,0.0,1.2184696791468346e-07,0.0,0.0,0.0,1.2184696791468346e-07,-0.6976083517074585,0.22513921558857083,9.777195930480957,8.999999999999999e-08,0.0,0.0,0.0,8.999999999999999e-08,0.0,0.0,0.0,8.999999999999999e-08
1719006862.139479,77580,1719006862,132738880,base_link,0.023843397786918803,-0.028000002305126507,-0.8549802952026109,-0.5173551469656955,1.0,0.0,0.0,0.0,1.0,0.0,0.0,0.0,1.0,0.0007460406632162631,0.00041116258944384754,0.00016364076873287553,1.2184696791468346e-07,0.0,0.0,0.0,1.2184696791468346e-07,0.0,0.0,0.0,1.2184696791468346e-07,-0.6941457986831665,0.22053170204162717,9.78050708770752,8.999999999999999e-08,0.0,0.0,0.0,8.999999999999999e-08,0.0,0.0,0.0,8.999999999999999e-08
1719006862.1455762,77581,1719006862,137738880,base_link,0.023845134698058608,-0.028000067171760543,-0.8549806745242474,-0.5173544304692709,1.0,0.0,0.0,0.0,1.0,0.0,0.0,0.0,1.0,0.00026226945919916034,0.0003757245722226799,0.00036322040250524873,1.2184696791468346e-07,0.0,0.0,0.0,1.2184696791468346e-07,0.0,0.0,0.0,1.2184696791468346e-07,-0.6786062717437744,0.23870949447155118,9.77590274810791,8.999999999999999e-08,0.0,0.0,0.0,8.999999999999999e-08,0.0,0.0,0.0,8.999999999999999e-08
1719006862.1509795,77582,1719006862,147738880,base_link,0.023845889719337012,-0.0279985745806332,-0.8549820653702483,-0.5173521123926028,1.0,0.0,0.0,0.0,1.0,0.0,0.0,0.0,1.0,-0.00012633047299459577,0.00016098866763059055,0.0004759844741784036,1.2184696791468346e-07,0.0,0.0,0.0,1.2184696791468346e-07,0.0,0.0,0.0,1.2184696791468346e-07,-0.7020770907402039,0.22887764871120572,9.77746295928955,8.999999999999999e-08,0.0,0.0,0.0,8.999999999999999e-08,0.0,0.0,0.0,8.999999999999999e-08
1719006862.1578848,77583,1719006862,152738880,base_link,0.02384411428334349,-0.027996451433139467,-0.8549826343527033,-0.5173513748227538,1.0,0.0,0.0,0.0,1.0,0.0,0.0,0.0,1.0,-0.0005154699319973588,-0.0004471931315492838,0.000600684026721865,1.2184696791468346e-07,0.0,0.0,0.0,1.2184696791468346e-07,0.0,0.0,0.0,1.2184696791468346e-07,-0.7021663188934326,0.2253592461347592,9.784651756286621,8.999999999999999e-08,0.0,0.0,0.0,8.999999999999999e-08,0.0,0.0,0.0,8.999999999999999e-08
1719006862.1640081,77584,1719006862,157739648,base_link,0.02384545310432822,-0.027995544617351972,-0.8549831401148853,-0.5173506161794806,1.0,0.0,0.0,0.0,1.0,0.0,0.0,0.0,1.0,-0.0005036086076870561,-0.00013480712368618692,0.00047228269977495074,1.2184696791468346e-07,0.0,0.0,0.0,1.2184696791468346e-07,0.0,0.0,0.0,1.2184696791468346e-07,-0.6863813400268555,0.22025054693222165,9.778548240661621,8.999999999999999e-08,0.0,0.0,0.0,8.999999999999999e-08,0.0,0.0,0.0,8.999999999999999e-08
1719006862.1698766,77585,1719006862,162739648,base_link,0.023846939933191116,-0.02799550658640664,-0.8549836142669311,-0.5173495519715557,1.0,0.0,0.0,0.0,1.0,0.0,0.0,0.0,1.0,-0.00038815769948996603,8.734008588362489e-05,0.0003798312973231077,1.2184696791468346e-07,0.0,0.0,0.0,1.2184696791468346e-07,0.0,0.0,0.0,1.2184696791468346e-07,-0.6921887993812561,0.23174749314785123,9.780478477478027,8.999999999999999e-08,0.0,0.0,0.0,8.999999999999999e-08,0.0,0.0,0.0,8.999999999999999e-08
1719006862.176157,77586,1719006862,167739648,base_link,0.023847186558109357,-0.02799448551314701,-0.8549842359329467,-0.5173485931307522,1.0,0.0,0.0,0.0,1.0,0.0,0.0,0.0,1.0,-0.00041174766374751925,5.2008006605319726e-05,0.00036436994560062885,1.2184696791468346e-07,0.0,0.0,0.0,1.2184696791468346e-07,0.0,0.0,0.0,1.2184696791468346e-07,-0.6943213939666748,0.22410947084427,9.780990600585938,8.999999999999999e-08,0.0,0.0,0.0,8.999999999999999e-08,0.0,0.0,0.0,8.999999999999999e-08
1719006862.1791306,77587,1719006862,172739648,base_link,0.023847805260674607,-0.02799465179563528,-0.8549828029400972,-0.5173509533542687,1.0,0.0,0.0,0.0,1.0,0.0,0.0,0.0,1.0,-0.00017899577505886555,0.00011589974747039372,-0.00040118643664754927,1.2184696791468346e-07,0.0,0.0,0.0,1.2184696791468346e-07,0.0,0.0,0.0,1.2184696791468346e-07,-0.7043046951293945,0.21616722643375516,9.799408912658691,8.999999999999999e-08,0.0,0.0,0.0,8.999999999999999e-08,0.0,0.0,0.0,8.999999999999999e-08
1719006862.1850553,77588,1719006862,177739648,base_link,0.023846481421577435,-0.027994126441754034,-0.8549828661603701,-0.5173509744276931,1.0,0.0,0.0,0.0,1.0,0.0,0.0,0.0,1.0,-5.771999713033438e-05,-0.0002204173360951245,-0.0002482532581780106,1.2184696791468346e-07,0.0,0.0,0.0,1.2184696791468346e-07,0.0,0.0,0.0,1.2184696791468346e-07,-0.6702994108200073,0.22692543268203855,9.796554565429688,8.999999999999999e-08,0.0,0.0,0.0,8.999999999999999e-08,0.0,0.0,0.0,8.999999999999999e-08
1719006862.1901233,77589,1719006862,182739648,base_link,0.023846507269449372,-0.02799380556594252,-0.8549832454820067,-0.5173503422249653,1.0,0.0,0.0,0.0,1.0,0.0,0.0,0.0,1.0,0.0002458275412209332,-0.0003009096544701606,5.833135219290856e-05,1.2184696791468346e-07,0.0,0.0,0.0,1.2184696791468346e-07,0.0,0.0,0.0,1.2184696791468346e-07,-0.6876872181892395,0.2234305292367947,9.77262020111084,8.999999999999999e-08,0.0,0.0,0.0,8.999999999999999e-08,0.0,0.0,0.0,8.999999999999999e-08
1719006862.1988494,77590,1719006862,192739648,base_link,0.02384402949573809,-0.02799543513432752,-0.8549832349452945,-0.5173502684679805,1.0,0.0,0.0,0.0,1.0,0.0,0.0,0.0,1.0,0.00036228803219273686,-0.00022807921050116417,0.00011275394354015591,1.2184696791468346e-07,0.0,0.0,0.0,1.2184696791468346e-07,0.0,0.0,0.0,1.2184696791468346e-07,-0.6934228539466858,0.22486895322799802,9.774744033813477,8.999999999999999e-08,0.0,0.0,0.0,8.999999999999999e-08,0.0,0.0,0.0,8.999999999999999e-08
1719006862.2039778,77591,1719006862,197739648,base_link,0.023844366011981668,-0.027994745638227663,-0.8549840568088405,-0.5173491937233434,1.0,0.0,0.0,0.0,1.0,0.0,0.0,0.0,1.0,6.246787961572409e-06,-0.00017540657427161927,0.00037074240390211344,1.2184696791468346e-07,0.0,0.0,0.0,1.2184696791468346e-07,0.0,0.0,0.0,1.2184696791468346e-07,-0.6885942220687866,0.21271868050098539,9.785950660705566,8.999999999999999e-08,0.0,0.0,0.0,8.999999999999999e-08,0.0,0.0,0.0,8.999999999999999e-08
1719006862.2131078,77592,1719006862,202739648,base_link,0.023844831273676557,-0.027996234936632464,-0.8549854687282656,-0.5173466859858571,1.0,0.0,0.0,0.0,1.0,0.0,0.0,0.0,1.0,0.0001468546106480062,0.0001799918827600778,0.0006758323288522661,1.2184696791468346e-07,0.0,0.0,0.0,1.2184696791468346e-07,0.0,0.0,0.0,1.2184696791468346e-07,-0.6816304922103882,0.22680811583995938,9.782618522644043,8.999999999999999e-08,0.0,0.0,0.0,8.999999999999999e-08,0.0,0.0,0.0,8.999999999999999e-08
1719006862.2141523,77593,1719006862,207739648,base_link,0.023845653795767027,-0.027997351169573498,-0.8549854898016898,-0.5173465806187357,1.0,0.0,0.0,0.0,1.0,0.0,0.0,0.0,1.0,0.00021533452672883868,0.00032745202770456677,0.0005434605409391224,1.2184696791468346e-07,0.0,0.0,0.0,1.2184696791468346e-07,0.0,0.0,0.0,1.2184696791468346e-07,-0.6771290898323059,0.2380201518535626,9.775023460388184,8.999999999999999e-08,0.0,0.0,0.0,8.999999999999999e-08,0.0,0.0,0.0,8.999999999999999e-08
1719006862.2194178,77594,1719006862,212739648,base_link,0.02384728402269654,-0.0279971328620691,-0.8549854055079927,-0.5173466649124328,1.0,0.0,0.0,0.0,1.0,0.0,0.0,0.0,1.0,-0.00010353216202929616,0.0006019603461027145,0.00021098548313602797,1.2184696791468346e-07,0.0,0.0,0.0,1.2184696791468346e-07,0.0,0.0,0.0,1.2184696791468346e-07,-0.6880063414573669,0.2261294126510632,9.773303031921387,8.999999999999999e-08,0.0,0.0,0.0,8.999999999999999e-08,0.0,0.0,0.0,8.999999999999999e-08
1719006862.225914,77595,1719006862,217739648,base_link,0.02384870977155632,-0.027998035726589546,-0.8549857321460688,-0.5173460010995686,1.0,0.0,0.0,0.0,1.0,0.0,0.0,0.0,1.0,-0.0003173966542817652,0.0007077566115185618,-7.702386938035575e-06,1.2184696791468346e-07,0.0,0.0,0.0,1.2184696791468346e-07,0.0,0.0,0.0,1.2184696791468346e-07,-0.6791532635688782,0.22569045424461484,9.78672981262207,8.999999999999999e-08,0.0,0.0,0.0,8.999999999999999e-08,0.0,0.0,0.0,8.999999999999999e-08
1719006862.230391,77596,1719006862,222739648,base_link,0.02385165642895729,-0.027996917188742736,-0.854985099943341,-0.5173469704770844,1.0,0.0,0.0,0.0,1.0,0.0,0.0,0.0,1.0,-0.0005781371146440506,0.0007241090061143041,-0.0003071057435590775,1.2184696791468346e-07,0.0,0.0,0.0,1.2184696791468346e-07,0.0,0.0,0.0,1.2184696791468346e-07,-0.6923876404762268,0.22072640061378598,9.776042938232422,8.999999999999999e-08,0.0,0.0,0.0,8.999999999999999e-08,0.0,0.0,0.0,8.999999999999999e-08
1719006862.2395942,77597,1719006862,232739648,base_link,0.023854160873721147,-0.02799802156788262,-0.8549852053104624,-0.5173466122288721,1.0,0.0,0.0,0.0,1.0,0.0,0.0,0.0,1.0,-0.00020146765746176243,0.00043451989768072963,3.852846566587681e-05,1.2184696791468346e-07,0.0,0.0,0.0,1.2184696791468346e-07,0.0,0.0,0.0,1.2184696791468346e-07,-0.670524001121521,0.23877650499343991,9.764934539794922,8.999999999999999e-08,0.0,0.0,0.0,8.999999999999999e-08,0.0,0.0,0.0,8.999999999999999e-08
1719006862.243304,77598,1719006862,237739648,base_link,0.023853273320360514,-0.027996928219363247,-0.8549861957614024,-0.51734511601575,1.0,0.0,0.0,0.0,1.0,0.0,0.0,0.0,1.0,-5.5000302381813526e-05,-3.3984368201345165e-05,0.00034228531876578927,1.2184696791468346e-07,0.0,0.0,0.0,1.2184696791468346e-07,0.0,0.0,0.0,1.2184696791468346e-07,-0.6770055294036865,0.21804283559322477,9.798401832580566,8.999999999999999e-08,0.0,0.0,0.0,8.999999999999999e-08,0.0,0.0,0.0,8.999999999999999e-08
1719006862.2533119,77599,1719006862,242739648,base_link,0.02385511049490166,-0.02799631857178498,-0.854985247457311,-0.5173465700820237,1.0,0.0,0.0,0.0,1.0,0.0,0.0,0.0,1.0,-0.00031849934021010995,0.0002481982810422778,-0.00018734057084657255,1.2184696791468346e-07,0.0,0.0,0.0,1.2184696791468346e-07,0.0,0.0,0.0,1.2184696791468346e-07,-0.6722143292427063,0.22856833040714383,9.784778594970703,8.999999999999999e-08,0.0,0.0,0.0,8.999999999999999e-08,0.0,0.0,0.0,8.999999999999999e-08
1719006862.2563002,77600,1719006862,247739648,base_link,0.023856755703718726,-0.02799671748512069,-0.8549842148595224,-0.5173481927356912,1.0,0.0,0.0,0.0,1.0,0.0,0.0,0.0,1.0,-0.00024473824305459857,0.000270193995675072,-0.0003503814805299044,1.2184696791468346e-07,0.0,0.0,0.0,1.2184696791468346e-07,0.0,0.0,0.0,1.2184696791468346e-07,-0.6911942362785339,0.25249150395393494,9.785390853881836,8.999999999999999e-08,0.0,0.0,0.0,8.999999999999999e-08,0.0,0.0,0.0,8.999999999999999e-08
1719006862.2595246,77601,1719006862,252739904,base_link,0.023855129921964643,-0.027996652124578275,-0.8549844572039014,-0.5173478660976153,1.0,0.0,0.0,0.0,1.0,0.0,0.0,0.0,1.0,-6.963906344026327e-06,-0.00020653649698942902,-0.00018935333355329928,1.2184696791468346e-07,0.0,0.0,0.0,1.2184696791468346e-07,0.0,0.0,0.0,1.2184696791468346e-07,-0.6780977845191956,0.22571007907390714,9.780189514160156,8.999999999999999e-08,0.0,0.0,0.0,8.999999999999999e-08,0.0,0.0,0.0,8.999999999999999e-08
1719006862.2643223,77602,1719006862,257739904,base_link,0.023856118397271125,-0.02799712298390148,-0.8549844255937649,-0.5173478134140547,1.0,0.0,0.0,0.0,1.0,0.0,0.0,0.0,1.0,1.0917021427303553e-05,8.216564310714604e-05,8.241820614784955e-05,1.2184696791468346e-07,0.0,0.0,0.0,1.2184696791468346e-07,0.0,0.0,0.0,1.2184696791468346e-07,-0.6811657547950745,0.21517078578472257,9.783696174621582,8.999999999999999e-08,0.0,0.0,0.0,8.999999999999999e-08,0.0,0.0,0.0,8.999999999999999e-08
1719006862.2700384,77603,1719006862,262739904,base_link,0.02385627694186142,-0.02799652189740182,-0.8549851947737502,-0.5173465384718872,1.0,0.0,0.0,0.0,1.0,0.0,0.0,0.0,1.0,-0.00031804590253159404,-7.26212019799277e-05,0.00012194400187581779,1.2184696791468346e-07,0.0,0.0,0.0,1.2184696791468346e-07,0.0,0.0,0.0,1.2184696791468346e-07,-0.6824473142623901,0.22423316538334012,9.777832984924316,8.999999999999999e-08,0.0,0.0,0.0,8.999999999999999e-08,0.0,0.0,0.0,8.999999999999999e-08
1719006862.2793937,77604,1719006862,272739904,base_link,0.023858357613234394,-0.02799546328710524,-0.8549849524293713,-0.5173468651099632,1.0,0.0,0.0,0.0,1.0,0.0,0.0,0.0,1.0,-0.0002717557945288718,0.00019232198246754706,-1.5050638467073464e-05,1.2184696791468346e-07,0.0,0.0,0.0,1.2184696791468346e-07,0.0,0.0,0.0,1.2184696791468346e-07,-0.7081184387207031,0.2275782972574246,9.784998893737793,8.999999999999999e-08,0.0,0.0,0.0,8.999999999999999e-08,0.0,0.0,0.0,8.999999999999999e-08
1719006862.2841265,77605,1719006862,277739904,base_link,0.023859811185599638,-0.027996143398945857,-0.8549842991532194,-0.5173478555609032,1.0,0.0,0.0,0.0,1.0,0.0,0.0,0.0,1.0,-0.0001319168950431049,0.0005633853143081069,-7.068365812301643e-05,1.2184696791468346e-07,0.0,0.0,0.0,1.2184696791468346e-07,0.0,0.0,0.0,1.2184696791468346e-07,-0.6897042989730835,0.2208576500415814,9.760965347290039,8.999999999999999e-08,0.0,0.0,0.0,8.999999999999999e-08,0.0,0.0,0.0,8.999999999999999e-08
1719006862.2892926,77606,1719006862,282739904,base_link,0.023862093371592053,-0.02799528366909069,-0.854983192798446,-0.5173496362652528,1.0,0.0,0.0,0.0,1.0,0.0,0.0,0.0,1.0,-0.0003627848927862942,0.0003260538796894252,-0.0005043700220994651,1.2184696791468346e-07,0.0,0.0,0.0,1.2184696791468346e-07,0.0,0.0,0.0,1.2184696791468346e-07,-0.6978380680084229,0.23305608332157254,9.775287628173828,8.999999999999999e-08,0.0,0.0,0.0,8.999999999999999e-08,0.0,0.0,0.0,8.999999999999999e-08
1719006862.2934384,77607,1719006862,287739904,base_link,0.02386015626292182,-0.027994180936312067,-0.8549831506515975,-0.5173498469994954,1.0,0.0,0.0,0.0,1.0,0.0,0.0,0.0,1.0,-0.0003477369318716228,1.4201297744875718e-05,-0.0004556912463158369,1.2184696791468346e-07,0.0,0.0,0.0,1.2184696791468346e-07,0.0,0.0,0.0,1.2184696791468346e-07,-0.6864526271820068,0.2298411726951611,9.789873123168945,8.999999999999999e-08,0.0,0.0,0.0,8.999999999999999e-08,0.0,0.0,0.0,8.999999999999999e-08
1719006862.2990506,77608,1719006862,292739904,base_link,0.02385844717528748,-0.02799308199016437,-0.8549833824592643,-0.5173497837792226,1.0,0.0,0.0,0.0,1.0,0.0,0.0,0.0,1.0,-4.196178633719683e-05,-0.0005257155280560255,-0.00023430236615240568,1.2184696791468346e-07,0.0,0.0,0.0,1.2184696791468346e-07,0.0,0.0,0.0,1.2184696791468346e-07,-0.6721778512001038,0.22102867066860318,9.777658462524414,8.999999999999999e-08,0.0,0.0,0.0,8.999999999999999e-08,0.0,0.0,0.0,8.999999999999999e-08
1719006862.3052878,77609,1719006862,297739904,base_link,0.023859097323352986,-0.02799265311305355,-0.8549835615833705,-0.5173492674803283,1.0,0.0,0.0,0.0,1.0,0.0,0.0,0.0,1.0,-0.0002675203140825033,-0.0003475721459835768,8.547079050913457e-05,1.2184696791468346e-07,0.0,0.0,0.0,1.2184696791468346e-07,0.0,0.0,0.0,1.2184696791468346e-07,-0.6903846263885498,0.20700903236866117,9.781474113464355,8.999999999999999e-08,0.0,0.0,0.0,8.999999999999999e-08,0.0,0.0,0.0,8.999999999999999e-08
1719006862.310601,77610,1719006862,302739904,base_link,0.023859201044112995,-0.027989878335769162,-0.854984014661992,-0.5173486458143128,1.0,0.0,0.0,0.0,1.0,0.0,0.0,0.0,1.0,-0.00048117488040588796,-0.00039650959661230445,0.0001943275565281511,1.2184696791468346e-07,0.0,0.0,0.0,1.2184696791468346e-07,0.0,0.0,0.0,1.2184696791468346e-07,-0.6981472373008728,0.21690471470356107,9.78192138671875,8.999999999999999e-08,0.0,0.0,0.0,8.999999999999999e-08,0.0,0.0,0.0,8.999999999999999e-08
1719006862.3188832,77611,1719006862,312739904,base_link,0.023856235124285165,-0.02798823444404111,-0.8549832665554309,-0.517350321151541,1.0,0.0,0.0,0.0,1.0,0.0,0.0,0.0,1.0,-0.0001733547542244196,-0.0006693297764286399,-0.0002385855477768927,1.2184696791468346e-07,0.0,0.0,0.0,1.2184696791468346e-07,0.0,0.0,0.0,1.2184696791468346e-07,-0.6887615323066711,0.22967460751533628,9.798316955566406,8.999999999999999e-08,0.0,0.0,0.0,8.999999999999999e-08,0.0,0.0,0.0,8.999999999999999e-08
1719006862.3276043,77612,1719006862,317739904,base_link,0.02385613239134192,-0.027987762926173398,-0.8549837512441888,-0.5173494992879951,1.0,0.0,0.0,0.0,1.0,0.0,0.0,0.0,1.0,-0.00010974006727337837,-0.0005559761775657535,0.00012060027802363045,1.2184696791468346e-07,0.0,0.0,0.0,1.2184696791468346e-07,0.0,0.0,0.0,1.2184696791468346e-07,-0.6829437613487244,0.22331580519676328,9.770459175109863,8.999999999999999e-08,0.0,0.0,0.0,8.999999999999999e-08,0.0,0.0,0.0,8.999999999999999e-08
1719006862.3292797,77613,1719006862,322739904,base_link,0.02385614836104624,-0.027988068326188973,-0.8549844572039013,-0.5173481189787064,1.0,0.0,0.0,0.0,1.0,0.0,0.0,0.0,1.0,5.65894297324121e-05,-1.215753582073369e-05,0.0005335001624189317,1.2184696791468346e-07,0.0,0.0,0.0,1.2184696791468346e-07,0.0,0.0,0.0,1.2184696791468346e-07,-0.687558114528656,0.2268650084733975,9.77687931060791,8.999999999999999e-08,0.0,0.0,0.0,8.999999999999999e-08,0.0,0.0,0.0,8.999999999999999e-08
1719006862.3335094,77614,1719006862,327739904,base_link,0.023856590573683348,-0.02798862183284793,-0.854985416044705,-0.5173467386694177,1.0,0.0,0.0,0.0,1.0,0.0,0.0,0.0,1.0,7.25099234841764e-05,6.473917892435572e-05,0.0005854205810464919,1.2184696791468346e-07,0.0,0.0,0.0,1.2184696791468346e-07,0.0,0.0,0.0,1.2184696791468346e-07,-0.6748007535934448,0.2328621596097958,9.75600528717041,8.999999999999999e-08,0.0,0.0,0.0,8.999999999999999e-08,0.0,0.0,0.0,8.999999999999999e-08
1719006862.340034,77615,1719006862,332739904,base_link,0.02385425438704128,-0.027988961312541798,-0.8549858480499022,-0.5173458851957353,1.0,0.0,0.0,0.0,1.0,0.0,0.0,0.0,1.0,0.000297156919259578,-0.0002864979323931038,0.0005849325680173934,1.2184696791468346e-07,0.0,0.0,0.0,1.2184696791468346e-07,0.0,0.0,0.0,1.2184696791468346e-07,-0.6922896504402161,0.22171394526958585,9.774901390075684,8.999999999999999e-08,0.0,0.0,0.0,8.999999999999999e-08,0.0,0.0,0.0,8.999999999999999e-08
1719006862.345762,77616,1719006862,337739904,base_link,0.023853498542582244,-0.027989185053038382,-0.8549860587841448,-0.5173457587551898,1.0,0.0,0.0,0.0,1.0,0.0,0.0,0.0,1.0,0.00031478918390348554,-0.0002525635645724833,8.84964247234166e-05,1.2184696791468346e-07,0.0,0.0,0.0,1.2184696791468346e-07,0.0,0.0,0.0,1.2184696791468346e-07,-0.6806890368461609,0.23049193620681882,9.779332160949707,8.999999999999999e-08,0.0,0.0,0.0,8.999999999999999e-08,0.0,0.0,0.0,8.999999999999999e-08
1719006862.35052,77617,1719006862,342739904,base_link,0.023853541183339134,-0.027989663979531815,-0.8549859744904478,-0.5173456744614928,1.0,0.0,0.0,0.0,1.0,0.0,0.0,0.0,1.0,0.00045269698603078723,6.728916923748329e-05,5.2733463235199445e-05,1.2184696791468346e-07,0.0,0.0,0.0,1.2184696791468346e-07,0.0,0.0,0.0,1.2184696791468346e-07,-0.6768969893455505,0.23194095492363095,9.777384757995605,8.999999999999999e-08,0.0,0.0,0.0,8.999999999999999e-08,0.0,0.0,0.0,8.999999999999999e-08
1719006862.358551,77618,1719006862,352739904,base_link,0.0238519461885408,-0.027992934311558457,-0.8549863748855085,-0.5173451054790379,1.0,0.0,0.0,0.0,1.0,0.0,0.0,0.0,1.0,0.0006279716617427766,-1.088903081836177e-05,0.00015731074381619692,1.2184696791468346e-07,0.0,0.0,0.0,1.2184696791468346e-07,0.0,0.0,0.0,1.2184696791468346e-07,-0.6919304132461548,0.22071772813797116,9.80128002166748,8.999999999999999e-08,0.0,0.0,0.0,8.999999999999999e-08,0.0,0.0,0.0,8.999999999999999e-08
1719006862.3669538,77619,1719006862,357738368,base_link,0.02385206028137681,-0.02799363681391235,-0.8549863538120843,-0.5173451265524621,1.0,0.0,0.0,0.0,1.0,0.0,0.0,0.0,1.0,0.0002304564113728702,9.002359001897277e-05,0.00013022811617702246,1.2184696791468346e-07,0.0,0.0,0.0,1.2184696791468346e-07,0.0,0.0,0.0,1.2184696791468346e-07,-0.6828206777572632,0.22788861393928647,9.781896591186523,8.999999999999999e-08,0.0,0.0,0.0,8.999999999999999e-08,0.0,0.0,0.0,8.999999999999999e-08
